Device Type,GENEActiv           
Device Model,1.1
Device Unique Serial Code,11152
Device Firmware Version,Ver1.30 date 05Aug11
Calibration Date,2011-09-07 19:20:18:000
Application name & version ,GENEActiv PC Software 2.1




Measurement Frequency,100 Hz
Start Time,2011-10-09 10:20:00:000
Last measurement,
Device Location Code,right wrist
Time Zone,GMT +01





Subject Code,Example
Date of Birth,01/01/1900
Sex,
Height,178
Weight,67
Handedness Code,right
Subject Notes,



Study Centre,
Study Code,
Investigator ID,
Exercise Type,
Config Operator ID,
Config Time,2011-10-09 10:16:39:671:
Config Notes,Notes
Extract Operator ID,
Extract Time,2011-10-9 11:24:8:453
Extract Notes,










Sensor type,MEMS accelerometer x-axis
Range,-8 to 8             
Resolution,0.0039
Units,g                   
Additional information,
Sensor type,MEMS accelerometer y-axis
Range,-8 to 8             
Resolution,0.0039
Units,g                   
Additional information,
Sensor type,MEMS accelerometer z-axis 
Range,-8 to 8             
Resolution,0.0039
Units,g                   
Additional information,
Sensor type,Lux Photodiode 400nm - 1100nm 
Range,0 to 5000           
Resolution,5
Units,lux                 
Additional information,
Sensor type,User button event marker
Range,1 or 0
Resolution,
Units,
Additional information,1=pressed
Sensor type,Linear active thermistor
Range,0 to 70             
Resolution,0.1
Units,deg. C              
Additional information,




















2011-10-09 10:25:02:500,-0.421,-0.6751,0.305,48,0,24.5
2011-10-09 10:25:02:510,-0.3552,-0.7253,0.309,48,0,24.5
2011-10-09 10:25:02:520,-0.2236,-0.791,0.2614,48,0,24.5
2011-10-09 10:25:02:530,-0.0494,-0.8605,0.2693,48,0,24.5
2011-10-09 10:25:02:540,0.1595,-0.9609,0.2455,48,0,24.5
2011-10-09 10:25:02:550,0.5002,-1.1153,0.3566,48,0,24.5
2011-10-09 10:25:02:560,1.2124,-1.3316,0.436,50,0,24.5
2011-10-09 10:25:02:570,2.1026,-1.6482,0.2653,50,0,24.5
2011-10-09 10:25:02:580,2.931,-2.1773,-0.0282,50,0,24.5
2011-10-09 10:25:02:590,3.1981,-2.6909,-0.2941,48,0,24.5
2011-10-09 10:25:02:600,3.4071,-3.2817,-0.7504,48,0,24.5
2011-10-09 10:25:02:610,3.4884,-3.4014,-0.925,42,0,24.5
2011-10-09 10:25:02:620,3.8135,-2.9496,-0.8932,40,0,24.5
2011-10-09 10:25:02:630,3.4109,-2.3935,-0.7107,37,0,24.5
2011-10-09 10:25:02:640,2.6097,-1.8066,-0.4012,37,0,24.5
2011-10-09 10:25:02:650,2.0717,-1.2737,-0.0798,37,0,24.5
2011-10-09 10:25:02:660,1.882,-0.818,0.1939,37,0,24.5
2011-10-09 10:25:02:670,1.8472,-0.4087,0.3645,37,0,24.5
2011-10-09 10:25:02:680,1.8394,-0.0186,0.5074,37,0,24.5
2011-10-09 10:25:02:690,1.7001,0.24,0.5629,37,0,24.5
2011-10-09 10:25:02:700,1.5685,0.4987,0.5629,37,0,24.5
2011-10-09 10:25:02:710,1.4601,0.657,0.4201,37,0,24.5
2011-10-09 10:25:02:720,1.2975,0.7536,0.2733,37,0,24.5
2011-10-09 10:25:02:730,1.0498,0.8038,0.0749,37,0,24.5
2011-10-09 10:25:02:740,0.8137,0.8115,-0.0996,40,0,24.5
2011-10-09 10:25:02:750,0.5776,0.8463,-0.2742,40,0,24.5
2011-10-09 10:25:02:760,0.4073,0.9119,-0.3457,40,0,24.5
2011-10-09 10:25:02:770,0.2137,0.9467,-0.4329,40,0,24.5
2011-10-09 10:25:02:780,0.1441,0.966,-0.4171,40,0,24.5
2011-10-09 10:25:02:790,0.1557,0.9621,-0.3853,40,0,24.5
2011-10-09 10:25:02:800,0.2602,0.9853,-0.2703,40,0,24.5
2011-10-09 10:25:02:810,0.3957,1.0471,-0.2504,40,0,24.5
2011-10-09 10:25:02:820,0.4692,1.0548,-0.2464,40,0,24.5
2011-10-09 10:25:02:830,0.4344,0.9737,-0.2425,42,0,24.5
2011-10-09 10:25:02:840,0.3028,0.8231,-0.298,42,0,24.5
2011-10-09 10:25:02:850,0.175,0.6995,-0.4726,42,0,24.5
2011-10-09 10:25:02:860,0.1634,0.5335,-0.4806,42,0,24.5
2011-10-09 10:25:02:870,0.415,0.3443,-0.4806,42,0,24.5
2011-10-09 10:25:02:880,0.6743,0.3134,-0.3814,45,0,24.5
2011-10-09 10:25:02:890,0.9569,0.2747,-0.1988,45,0,24.5
2011-10-09 10:25:02:900,1.282,0.2709,-0.0044,45,0,24.5
2011-10-09 10:25:02:910,1.5878,0.2979,0.2296,45,0,24.5
2011-10-09 10:25:02:920,1.9168,0.2979,0.3606,45,0,24.5
2011-10-09 10:25:02:930,2.3078,0.2014,0.3963,45,0,24.5
2011-10-09 10:25:02:940,2.7181,-0.1345,0.2138,48,0,24.5
2011-10-09 10:25:02:950,2.9426,-0.4782,-0.048,48,0,24.5
2011-10-09 10:25:02:960,3.0935,-0.7794,-0.2068,50,0,24.5
2011-10-09 10:25:02:970,3.26,-0.984,-0.2782,50,0,24.5
2011-10-09 10:25:02:980,3.3374,-1.0729,-0.2266,50,0,24.5
2011-10-09 10:25:02:990,3.2639,-1.2119,-0.1353,50,0,24.5
2011-10-09 10:25:03:000,3.0045,-1.3316,0.0828,50,0,24.5
2011-10-09 10:25:03:010,2.6445,-1.3779,0.2098,50,0,24.5
2011-10-09 10:25:03:020,2.2768,-1.3316,0.2058,50,0,24.5
2011-10-09 10:25:03:030,1.8859,-1.2196,0.0947,50,0,24.5
2011-10-09 10:25:03:040,1.5375,-1.0458,0.0392,53,0,24.5
2011-10-09 10:25:03:050,1.2704,-0.9261,0.055,53,0,24.5
2011-10-09 10:25:03:060,1.0072,-0.7948,0.1265,53,0,24.5
2011-10-09 10:25:03:070,0.7518,-0.7408,0.1622,53,0,24.5
2011-10-09 10:25:03:080,0.504,-0.7408,0.2177,53,0,24.5
2011-10-09 10:25:03:090,0.2099,-0.7253,0.1661,56,0,24.5
2011-10-09 10:25:03:100,-0.181,-0.7292,0.1741,56,0,24.5
2011-10-09 10:25:03:110,-0.5371,-0.679,0.2693,56,0,24.5
2011-10-09 10:25:03:120,-0.7306,-0.6326,0.3526,56,0,24.5
2011-10-09 10:25:03:130,-0.8429,-0.6172,0.432,56,0,24.5
2011-10-09 10:25:03:140,-0.9745,-0.6172,0.5471,53,0,24.5
2011-10-09 10:25:03:150,-1.0016,-0.5361,0.5947,53,0,24.5
2011-10-09 10:25:03:160,-0.9513,-0.4782,0.5828,50,0,24.5
2011-10-09 10:25:03:170,-0.9396,-0.5052,0.559,48,0,24.5
2011-10-09 10:25:03:180,-0.9629,-0.4743,0.5629,48,0,24.5
2011-10-09 10:25:03:190,-0.928,-0.4357,0.4241,48,0,24.5
2011-10-09 10:25:03:200,-0.808,-0.482,0.3447,48,0,24.5
2011-10-09 10:25:03:210,-0.6222,-0.5515,0.2733,45,0,24.5
2011-10-09 10:25:03:220,-0.4945,-0.5902,0.2217,45,0,24.5
2011-10-09 10:25:03:230,-0.4132,-0.6519,0.2336,45,0,24.5
2011-10-09 10:25:03:240,-0.3397,-0.7137,0.1979,45,0,24.5
2011-10-09 10:25:03:250,-0.3048,-0.7176,0.1423,45,0,24.5
2011-10-09 10:25:03:260,-0.1926,-0.7523,0.1145,45,0,24.5
2011-10-09 10:25:03:270,0.0163,-0.845,0.0114,45,0,24.5
2011-10-09 10:25:03:280,0.4073,-0.984,-0.1036,45,0,24.5
2011-10-09 10:25:03:290,1.1079,-1.1926,-0.2187,48,0,24.5
2011-10-09 10:25:03:300,2.0523,-1.5942,-0.6552,50,0,24.5
2011-10-09 10:25:03:310,2.5478,-2.2004,-1.0321,50,0,24.5
2011-10-09 10:25:03:320,2.6832,-2.7913,-1.2702,53,0,24.5
2011-10-09 10:25:03:330,2.9387,-3.5404,-1.4567,53,0,24.5
2011-10-09 10:25:03:340,3.7709,-3.6756,-1.4845,53,0,24.5
2011-10-09 10:25:03:350,3.9606,-3.1156,-1.3932,50,0,24.5
2011-10-09 10:25:03:360,3.3142,-2.4283,-1.1948,50,0,24.5
2011-10-09 10:25:03:370,2.6523,-1.8645,-0.9686,50,0,24.5
2011-10-09 10:25:03:380,2.1336,-1.2891,-0.9052,48,0,24.5
2011-10-09 10:25:03:390,1.704,-0.6674,-0.7306,48,0,24.5
2011-10-09 10:25:03:400,1.4756,-0.2156,-0.6472,48,0,24.5
2011-10-09 10:25:03:410,0.9879,0.1396,-0.671,45,0,24.5
2011-10-09 10:25:03:420,0.3918,0.3404,-0.4607,42,0,24.5
2011-10-09 10:25:03:430,0.2757,0.5566,-0.3298,45,0,24.5
2011-10-09 10:25:03:440,0.5776,0.5644,-0.302,42,0,24.5
2011-10-09 10:25:03:450,0.9298,0.5528,-0.3298,42,0,24.5
2011-10-09 10:25:03:460,1.0459,0.6223,-0.3774,42,0,24.5
2011-10-09 10:25:03:470,0.8988,0.7381,-0.3734,42,0,24.5
2011-10-09 10:25:03:480,0.7053,0.8617,-0.421,42,0,24.5
2011-10-09 10:25:03:490,0.3918,0.9196,-0.4726,42,0,24.5
2011-10-09 10:25:03:500,-0.0842,0.9698,-0.3933,45,0,24.5
2011-10-09 10:25:03:510,-0.03,0.9776,-0.3496,45,0,24.5
2011-10-09 10:25:03:520,0.0589,0.9467,-0.3536,45,0,24.5
2011-10-09 10:25:03:530,0.1634,0.8578,-0.3576,45,0,24.5
2011-10-09 10:25:03:540,0.2331,0.7343,-0.3337,48,0,24.5
2011-10-09 10:25:03:550,0.264,0.6223,-0.4131,48,0,24.5
2011-10-09 10:25:03:560,0.3221,0.4987,-0.4449,48,0,24.5
2011-10-09 10:25:03:570,0.4034,0.4678,-0.4528,48,0,24.5
2011-10-09 10:25:03:580,0.5156,0.3172,-0.4806,48,0,24.5
2011-10-09 10:25:03:590,0.624,0.2284,-0.4647,48,0,24.5
2011-10-09 10:25:03:600,0.7943,0.2284,-0.4171,48,0,24.5
2011-10-09 10:25:03:610,1.1272,0.2786,-0.3536,48,0,24.5
2011-10-09 10:25:03:620,1.9052,0.2902,-0.3417,50,0,24.5
2011-10-09 10:25:03:630,3.0974,0.1203,-0.4369,50,0,24.5
2011-10-09 10:25:03:640,3.9567,-0.343,-0.5322,50,0,24.5
2011-10-09 10:25:03:650,4.0961,-0.9029,-0.6194,53,0,24.5
2011-10-09 10:25:03:660,4.0225,-1.4899,-0.5837,53,0,24.5
2011-10-09 10:25:03:670,3.9374,-1.8915,-0.6194,53,0,24.5
2011-10-09 10:25:03:680,3.7864,-1.9881,-0.7464,53,0,24.5
2011-10-09 10:25:03:690,3.3606,-1.9379,-0.6472,53,0,24.5
2011-10-09 10:25:03:700,2.9116,-1.7679,-0.4925,53,0,24.5
2011-10-09 10:25:03:710,2.4936,-1.5864,-0.3734,53,0,24.5
2011-10-09 10:25:03:720,2.0214,-1.4088,-0.2385,53,0,24.5
2011-10-09 10:25:03:730,1.6498,-1.2466,-0.1314,53,0,24.5
2011-10-09 10:25:03:740,1.3362,-1.1269,-0.0282,53,0,24.5
2011-10-09 10:25:03:750,1.0266,-0.9956,0.059,53,0,24.5
2011-10-09 10:25:03:760,0.6898,-0.8914,0.1265,53,0,24.5
2011-10-09 10:25:03:770,0.3492,-0.8025,0.1939,53,0,24.5
2011-10-09 10:25:03:780,0.0279,-0.7601,0.1582,53,0,24.5
2011-10-09 10:25:03:790,-0.2584,-0.7408,0.2098,53,0,24.5
2011-10-09 10:25:03:800,-0.5952,-0.679,0.2891,53,0,24.5
2011-10-09 10:25:03:810,-0.8235,-0.6249,0.3685,53,0,24.5
2011-10-09 10:25:03:820,-0.9784,-0.5245,0.4875,53,0,24.5
2011-10-09 10:25:03:830,-0.9667,-0.5129,0.5431,53,0,24.5
2011-10-09 10:25:03:840,-1.0519,-0.482,0.5788,53,0,24.5
2011-10-09 10:25:03:850,-1.0867,-0.4704,0.5748,53,0,24.5
2011-10-09 10:25:03:860,-1.0364,-0.4396,0.5471,50,0,24.5
2011-10-09 10:25:03:870,-1.0209,-0.4704,0.4955,50,0,24.5
2011-10-09 10:25:03:880,-0.9861,-0.4434,0.4479,50,0,24.5
2011-10-09 10:25:03:890,-0.8506,-0.455,0.3883,50,0,24.5
2011-10-09 10:25:03:900,-0.7074,-0.4859,0.3804,48,0,24.5
2011-10-09 10:25:03:910,-0.5371,-0.5593,0.3407,48,0,24.5
2011-10-09 10:25:03:920,-0.421,-0.6558,0.3407,48,0,24.5
2011-10-09 10:25:03:930,-0.3706,-0.6674,0.3526,48,0,24.5
2011-10-09 10:25:03:940,-0.3629,-0.6751,0.3447,48,0,24.5
2011-10-09 10:25:03:950,-0.2932,-0.6751,0.2733,48,0,24.5
2011-10-09 10:25:03:960,-0.15,-0.7562,0.1463,48,0,24.5
2011-10-09 10:25:03:970,-0.0107,-0.8952,0.0868,50,0,24.5
2011-10-09 10:25:03:980,0.2679,-1.0149,0.0233,50,0,24.5
2011-10-09 10:25:03:990,0.9221,-1.2466,-0.1949,50,0,24.5
2011-10-09 10:25:04:000,1.7543,-1.7409,-0.7306,50,0,24.5
2011-10-09 10:25:04:010,2.3775,-2.3433,-1.3496,50,0,24.5
2011-10-09 10:25:04:020,2.691,-3.2933,-2.0281,50,0,24.5
2011-10-09 10:25:04:030,2.6949,-4.0888,-2.5559,50,0,24.5
2011-10-09 10:25:04:040,2.9116,-4.0308,-2.5995,50,0,24.5
2011-10-09 10:25:04:050,2.9929,-3.2276,-2.1234,50,0,24.5
2011-10-09 10:25:04:060,2.7103,-2.5518,-1.54,48,0,24.5
2011-10-09 10:25:04:070,2.3426,-1.9765,-1.0837,48,0,24.5
2011-10-09 10:25:04:080,2.0214,-1.3663,-0.8655,48,0,24.5
2011-10-09 10:25:04:090,1.7736,-0.7408,-0.8813,48,0,24.5
2011-10-09 10:25:04:100,1.4485,-0.2079,-0.802,48,0,24.5
2011-10-09 10:25:04:110,1.1272,0.0701,-0.675,45,0,24.5
2011-10-09 10:25:04:120,0.8834,0.3249,-0.5599,45,0,24.5
2011-10-09 10:25:04:130,0.8021,0.5103,-0.4528,45,0,24.5
2011-10-09 10:25:04:140,0.8253,0.6223,-0.4091,45,0,24.5
2011-10-09 10:25:04:150,0.8253,0.7072,-0.4409,45,0,24.5
2011-10-09 10:25:04:160,0.7905,0.7613,-0.4687,45,0,24.5
2011-10-09 10:25:04:170,0.6743,0.8231,-0.5044,45,0,24.5
2011-10-09 10:25:04:180,0.566,0.9158,-0.5202,45,0,24.5
2011-10-09 10:25:04:190,0.4382,0.9698,-0.5639,45,0,24.5
2011-10-09 10:25:04:200,0.2447,1.0355,-0.5401,45,0,24.5
2011-10-09 10:25:04:210,0.0976,1.0625,-0.5083,45,0,24.5
2011-10-09 10:25:04:220,0.0241,1.0741,-0.4964,45,0,24.5
2011-10-09 10:25:04:230,-0.0223,1.0702,-0.429,45,0,24.5
2011-10-09 10:25:04:240,-0.0494,1.0509,-0.3933,48,0,24.5
2011-10-09 10:25:04:250,-0.0107,1.0007,-0.4091,48,0,24.5
2011-10-09 10:25:04:260,0.055,0.8965,-0.3893,48,0,24.5
2011-10-09 10:25:04:270,0.0279,0.7767,-0.4131,48,0,24.5
2011-10-09 10:25:04:280,0.0125,0.6725,-0.4449,48,0,24.5
2011-10-09 10:25:04:290,0.086,0.5721,-0.4369,48,0,24.5
2011-10-09 10:25:04:300,0.1634,0.5064,-0.421,50,0,24.5
2011-10-09 10:25:04:310,0.2447,0.3867,-0.4488,50,0,24.5
2011-10-09 10:25:04:320,0.3957,0.3404,-0.4528,50,0,24.5
2011-10-09 10:25:04:330,0.6743,0.3056,-0.5044,50,0,24.5
2011-10-09 10:25:04:340,0.9995,0.3751,-0.5599,50,0,24.5
2011-10-09 10:25:04:350,1.6691,0.379,-0.798,50,0,24.5
2011-10-09 10:25:04:360,2.5168,0.213,-1.1591,53,0,24.5
2011-10-09 10:25:04:370,3.1439,-0.1422,-1.4845,53,0,24.5
2011-10-09 10:25:04:380,3.3993,-0.5554,-1.54,53,0,24.5
2011-10-09 10:25:04:390,3.6703,-1.1076,-1.6869,56,0,24.5
2011-10-09 10:25:04:400,4.0922,-1.7062,-1.798,56,0,24.5
2011-10-09 10:25:04:410,4.3399,-2.1116,-1.7742,56,0,24.5
2011-10-09 10:25:04:420,4.038,-2.4051,-1.3853,58,0,24.5
2011-10-09 10:25:04:430,3.5232,-2.3819,-0.9409,58,0,24.5
2011-10-09 10:25:04:440,2.7761,-2.073,-0.421,58,0,24.5
2011-10-09 10:25:04:450,2.0175,-1.822,-0.1592,58,0,24.5
2011-10-09 10:25:04:460,1.522,-1.6869,-0.0719,58,0,24.5
2011-10-09 10:25:04:470,1.2395,-1.5633,-0.0838,56,0,24.5
2011-10-09 10:25:04:480,1.0188,-1.4204,-0.1195,56,0,24.5
2011-10-09 10:25:04:490,0.7131,-1.3277,-0.0441,56,0,24.5
2011-10-09 10:25:04:500,0.3995,-1.2119,0.0352,53,0,24.5
2011-10-09 10:25:04:510,0.1905,-1.1153,0.0471,53,0,24.5
2011-10-09 10:25:04:520,-0.1423,-1.0844,0.1503,53,0,24.5
2011-10-09 10:25:04:530,-0.5952,-1.0072,0.3487,53,0,24.5
2011-10-09 10:25:04:540,-0.8661,-0.9068,0.4756,53,0,24.5
2011-10-09 10:25:04:550,-1.0132,-0.8257,0.5431,50,0,24.5
2011-10-09 10:25:04:560,-1.0635,-0.7832,0.6582,50,0,24.5
2011-10-09 10:25:04:570,-1.0558,-0.7717,0.6979,50,0,24.5
2011-10-09 10:25:04:580,-1.0867,-0.791,0.6502,50,0,24.5
2011-10-09 10:25:04:590,-1.2338,-0.7099,0.5748,48,0,24.5
2011-10-09 10:25:04:600,-1.377,-0.5863,0.4955,48,0,24.5
2011-10-09 10:25:04:610,-1.4041,-0.4704,0.3328,48,0,24.5
2011-10-09 10:25:04:620,-1.3848,-0.4357,0.2653,45,0,24.5
2011-10-09 10:25:04:630,-1.2299,-0.4202,0.2971,45,0,24.5
2011-10-09 10:25:04:640,-0.8584,-0.5091,0.3447,45,0,24.5
2011-10-09 10:25:04:650,-0.5448,-0.6674,0.4042,45,0,24.5
2011-10-09 10:25:04:660,-0.3668,-0.7717,0.4122,42,0,24.5
2011-10-09 10:25:04:670,-0.2932,-0.8489,0.4082,42,0,24.5
2011-10-09 10:25:04:680,-0.2313,-0.8682,0.4042,42,0,24.5
2011-10-09 10:25:04:690,-0.061,-0.9416,0.4241,45,0,24.5
2011-10-09 10:25:04:700,0.4227,-1.0844,0.5233,45,0,24.5
2011-10-09 10:25:04:710,1.4253,-1.4204,0.3288,45,0,24.5
2011-10-09 10:25:04:720,2.4704,-2.0035,-0.2345,45,0,24.5
2011-10-09 10:25:04:730,3.0897,-2.9071,-1.1075,45,0,24.5
2011-10-09 10:25:04:740,2.8342,-4.0579,-1.8019,45,0,24.5
2011-10-09 10:25:04:750,2.811,-4.7182,-2.0916,42,0,24.5
2011-10-09 10:25:04:760,3.4961,-4.0849,-1.9488,42,0,24.5
2011-10-09 10:25:04:770,3.6858,-3.2122,-1.3615,42,0,24.5
2011-10-09 10:25:04:780,3.2213,-2.4592,-0.8893,42,0,24.5
2011-10-09 10:25:04:790,2.8729,-1.8181,-0.6512,40,0,24.5
2011-10-09 10:25:04:800,2.5633,-1.0922,-0.6274,40,0,24.5
2011-10-09 10:25:04:810,2.1762,-0.4898,-0.6115,40,0,24.5
2011-10-09 10:25:04:820,1.8472,-0.0379,-0.5758,40,0,24.5
2011-10-09 10:25:04:830,1.402,0.2825,-0.4726,37,0,24.5
2011-10-09 10:25:04:840,1.1079,0.5103,-0.4647,37,0,24.5
2011-10-09 10:25:04:850,0.9608,0.6763,-0.4964,40,0,24.5
2011-10-09 10:25:04:860,0.8718,0.7922,-0.5599,40,0,24.5
2011-10-09 10:25:04:870,0.7208,0.8154,-0.5441,40,0,24.5
2011-10-09 10:25:04:880,0.6047,0.8154,-0.5996,37,0,24.5
2011-10-09 10:25:04:890,0.4769,0.7883,-0.6552,37,0,24.5
2011-10-09 10:25:04:900,0.3376,0.8347,-0.5679,37,0,24.5
2011-10-09 10:25:04:910,0.2292,0.9312,-0.5679,37,0,24.5
2011-10-09 10:25:04:920,0.1712,1.0239,-0.5083,37,0,24.5
2011-10-09 10:25:04:930,0.1208,1.1011,-0.4568,37,0,24.5
2011-10-09 10:25:04:940,0.0241,1.1282,-0.429,37,0,24.5
2011-10-09 10:25:04:950,-0.0107,1.0702,-0.429,37,0,24.5
2011-10-09 10:25:04:960,-0.0571,0.9467,-0.4052,37,0,24.5
2011-10-09 10:25:04:970,-0.1307,0.8154,-0.4409,37,0,24.5
2011-10-09 10:25:04:980,-0.1732,0.657,-0.4885,37,0,24.5
2011-10-09 10:25:04:990,-0.2119,0.4871,-0.5798,37,0,24.5
2011-10-09 10:25:05:000,-0.1655,0.3095,-0.6075,37,0,24.5
2011-10-09 10:25:05:010,-0.0687,0.2052,-0.6194,40,0,24.5
2011-10-09 10:25:05:020,0.1092,0.1241,-0.6512,40,0,24.5
2011-10-09 10:25:05:030,0.2486,0.1048,-0.6314,40,0,24.5
2011-10-09 10:25:05:040,0.5002,0.0662,-0.6155,40,0,24.5
2011-10-09 10:25:05:050,0.7169,0.0932,-0.5639,40,0,24.5
2011-10-09 10:25:05:060,1.1233,0.1048,-0.6591,40,0,24.5
2011-10-09 10:25:05:070,1.7194,0.0122,-0.8218,40,0,24.5
2011-10-09 10:25:05:080,2.3697,-0.2928,-1.0599,42,0,24.5
2011-10-09 10:25:05:090,2.8265,-0.7794,-1.1591,42,0,24.5
2011-10-09 10:25:05:100,3.2329,-1.3509,-1.0877,42,0,24.5
2011-10-09 10:25:05:110,3.6083,-1.934,-0.9726,42,0,24.5
2011-10-09 10:25:05:120,3.8483,-2.4128,-0.929,45,0,24.5
2011-10-09 10:25:05:130,3.887,-2.5132,-0.8615,45,0,24.5
2011-10-09 10:25:05:140,3.5077,-2.3704,-0.7306,45,0,24.5
2011-10-09 10:25:05:150,3.0123,-2.1811,-0.5877,45,0,24.5
2011-10-09 10:25:05:160,2.4162,-2.0074,-0.4091,45,0,24.5
2011-10-09 10:25:05:170,1.913,-1.7911,-0.2504,45,0,24.5
2011-10-09 10:25:05:180,1.5607,-1.5054,-0.1393,45,0,24.5
2011-10-09 10:25:05:190,1.2201,-1.32,-0.048,48,0,24.5
2011-10-09 10:25:05:200,0.7982,-1.1926,0.0471,45,0,24.5
2011-10-09 10:25:05:210,0.4498,-1.0265,0.1304,48,0,24.5
2011-10-09 10:25:05:220,0.2176,-0.8759,0.182,48,0,24.5
2011-10-09 10:25:05:230,0.0783,-0.733,0.2018,48,0,24.5
2011-10-09 10:25:05:240,-0.2003,-0.5786,0.2455,48,0,24.5
2011-10-09 10:25:05:250,-0.4171,-0.4975,0.3368,48,0,24.5
2011-10-09 10:25:05:260,-0.6958,-0.4318,0.3883,45,0,24.5
2011-10-09 10:25:05:270,-0.8932,-0.3469,0.5153,45,0,24.5
2011-10-09 10:25:05:280,-0.99,-0.2812,0.5709,45,0,24.5
2011-10-09 10:25:05:290,-1.0171,-0.2542,0.6225,45,0,24.5
2011-10-09 10:25:05:300,-1.0093,-0.2388,0.6185,45,0,24.5
2011-10-09 10:25:05:310,-1.0712,-0.2503,0.5788,42,0,24.5
2011-10-09 10:25:05:320,-1.0751,-0.2079,0.5312,42,0,24.5
2011-10-09 10:25:05:330,-1.0674,-0.1808,0.4955,40,0,24.5
2011-10-09 10:25:05:340,-1.0132,-0.177,0.4082,40,0,24.5
2011-10-09 10:25:05:350,-0.9125,-0.177,0.4439,40,0,24.5
2011-10-09 10:25:05:360,-0.7345,-0.2001,0.4241,40,0,24.5
2011-10-09 10:25:05:370,-0.6261,-0.2851,0.436,40,0,24.5
2011-10-09 10:25:05:380,-0.5023,-0.4125,0.4399,40,0,24.5
2011-10-09 10:25:05:390,-0.3048,-0.4936,0.4122,40,0,24.5
2011-10-09 10:25:05:400,-0.1036,-0.5786,0.3804,40,0,24.5
2011-10-09 10:25:05:410,0.0434,-0.6674,0.3685,42,0,24.5
2011-10-09 10:25:05:420,0.1595,-0.7717,0.2415,42,0,24.5
2011-10-09 10:25:05:430,0.5118,-0.984,0.055,42,0,24.5
2011-10-09 10:25:05:440,1.3246,-1.3625,-0.2385,42,0,24.5
2011-10-09 10:25:05:450,2.0717,-2.0112,-0.5877,42,0,24.5
2011-10-09 10:25:05:460,2.8574,-2.8801,-1.0282,42,0,24.5
2011-10-09 10:25:05:470,3.2987,-3.7142,-1.1869,42,0,24.5
2011-10-09 10:25:05:480,3.589,-3.8802,-1.1155,40,0,24.5
2011-10-09 10:25:05:490,3.918,-3.2894,-1.0083,40,0,24.5
2011-10-09 10:25:05:500,3.8135,-2.7179,-0.925,37,0,24.5
2011-10-09 10:25:05:510,3.2561,-2.1927,-0.7663,37,0,24.5
2011-10-09 10:25:05:520,2.6949,-1.6289,-0.7226,37,0,24.5
2011-10-09 10:25:05:530,2.2575,-0.9918,-0.6115,37,0,24.5
2011-10-09 10:25:05:540,1.9439,-0.4782,-0.4845,37,0,24.5
2011-10-09 10:25:05:550,1.6343,-0.2079,-0.3615,37,0,24.5
2011-10-09 10:25:05:560,1.2279,0.0739,-0.1552,37,0,24.5
2011-10-09 10:25:05:570,1.0072,0.3558,-0.1552,37,0,24.5
2011-10-09 10:25:05:580,0.8679,0.6339,-0.1949,37,0,24.5
2011-10-09 10:25:05:590,0.7518,0.8733,-0.2782,37,0,24.5
2011-10-09 10:25:05:600,0.5931,1.0393,-0.3496,37,0,24.5
2011-10-09 10:25:05:610,0.4111,1.0586,-0.4052,37,0,24.5
2011-10-09 10:25:05:620,0.1982,1.0393,-0.3933,37,0,24.5
2011-10-09 10:25:05:630,0.1053,1.0393,-0.3734,40,0,24.5
2011-10-09 10:25:05:640,0.0473,1.0432,-0.3734,40,0,24.5
2011-10-09 10:25:05:650,0.0241,1.0278,-0.3576,40,0,24.5
2011-10-09 10:25:05:660,-0.0068,1.0316,-0.3457,40,0,24.5
2011-10-09 10:25:05:670,-0.0107,1.0046,-0.3377,40,0,24.5
2011-10-09 10:25:05:680,-0.0107,1.0046,-0.3258,40,0,24.5
2011-10-09 10:25:05:690,-0.03,0.9003,-0.3774,42,0,24.5
2011-10-09 10:25:05:700,-0.0378,0.7652,-0.4449,42,0,24.5
2011-10-09 10:25:05:710,0.0086,0.6184,-0.556,42,0,24.5
2011-10-09 10:25:05:720,0.0473,0.5064,-0.5639,42,0,24.5
2011-10-09 10:25:05:730,0.1092,0.4099,-0.6591,45,0,24.5
2011-10-09 10:25:05:740,0.1866,0.267,-0.7028,45,0,24.5
2011-10-09 10:25:05:750,0.4382,0.1589,-0.6829,45,0,24.5
2011-10-09 10:25:05:760,0.6937,0.0701,-0.6869,45,0,24.5
2011-10-09 10:25:05:770,1.0692,-0.0302,-0.6671,45,0,24.5
2011-10-09 10:25:05:780,1.5414,-0.0341,-0.6869,45,0,24.5
2011-10-09 10:25:05:790,2.0639,-0.0766,-0.8139,48,0,24.5
2011-10-09 10:25:05:800,2.5245,-0.2272,-0.9964,48,0,24.5
2011-10-09 10:25:05:810,3.0432,-0.5515,-1.2861,50,0,24.5
2011-10-09 10:25:05:820,3.3529,-1.042,-1.4488,50,0,24.5
2011-10-09 10:25:05:830,3.3722,-1.5401,-1.4369,53,0,24.5
2011-10-09 10:25:05:840,3.2019,-1.7486,-1.2464,53,0,24.5
2011-10-09 10:25:05:850,2.9852,-1.6289,-0.9448,53,0,24.5
2011-10-09 10:25:05:860,2.8149,-1.4938,-0.7782,53,0,24.5
2011-10-09 10:25:05:870,2.5826,-1.405,-0.5837,53,0,24.5
2011-10-09 10:25:05:880,2.2459,-1.2891,-0.4449,53,0,24.5
2011-10-09 10:25:05:890,1.8743,-1.1926,-0.3893,53,0,24.5
2011-10-09 10:25:05:900,1.5143,-1.0999,-0.3536,53,0,24.5
2011-10-09 10:25:05:910,1.1814,-0.9802,-0.2703,50,0,24.5
2011-10-09 10:25:05:920,0.8098,-0.8836,-0.2068,50,0,24.5
2011-10-09 10:25:05:930,0.5389,-0.8025,-0.1195,50,0,24.5
2011-10-09 10:25:05:940,0.3453,-0.7021,-0.0242,50,0,24.5
2011-10-09 10:25:05:950,0.1402,-0.6674,0.0471,50,0,24.5
2011-10-09 10:25:05:960,-0.0223,-0.621,0.0709,48,0,24.5
2011-10-09 10:25:05:970,-0.2816,-0.6172,0.1225,48,0,24.5
2011-10-09 10:25:05:980,-0.4713,-0.594,0.2495,48,0,24.5
2011-10-09 10:25:05:990,-0.5332,-0.5554,0.3368,48,0,24.5
2011-10-09 10:25:06:000,-0.6339,-0.5322,0.4082,48,0,24.5
2011-10-09 10:25:06:010,-0.75,-0.4936,0.4836,48,0,24.5
2011-10-09 10:25:06:020,-0.8274,-0.4087,0.5193,48,0,24.5
2011-10-09 10:25:06:030,-0.9125,-0.3276,0.5114,48,0,24.5
2011-10-09 10:25:06:040,-0.9435,-0.289,0.4836,45,0,24.5
2011-10-09 10:25:06:050,-0.9358,-0.2619,0.4161,45,0,24.5
2011-10-09 10:25:06:060,-0.87,-0.3005,0.4201,45,0,24.5
2011-10-09 10:25:06:070,-0.6919,-0.3739,0.4042,45,0,24.5
2011-10-09 10:25:06:080,-0.5332,-0.4589,0.3764,45,0,24.5
2011-10-09 10:25:06:090,-0.4752,-0.4936,0.4122,45,0,24.5
2011-10-09 10:25:06:100,-0.4132,-0.5438,0.4042,45,0,24.5
2011-10-09 10:25:06:110,-0.3319,-0.6095,0.3725,45,0,24.5
2011-10-09 10:25:06:120,-0.2661,-0.6481,0.3328,45,0,24.5
2011-10-09 10:25:06:130,-0.1694,-0.6944,0.2772,45,0,24.5
2011-10-09 10:25:06:140,-0.0262,-0.8025,0.1622,45,0,24.5
2011-10-09 10:25:06:150,0.2486,-0.9377,-0.0242,45,0,24.5
2011-10-09 10:25:06:160,0.6163,-1.0651,-0.1155,45,0,24.5
2011-10-09 10:25:06:170,1.4756,-1.3741,-0.3496,45,0,24.5
2011-10-09 10:25:06:180,2.4317,-1.9803,-0.6869,45,0,24.5
2011-10-09 10:25:06:190,2.869,-2.8685,-0.802,45,0,24.5
2011-10-09 10:25:06:200,3.1284,-4.0733,-1.0083,45,0,24.5
2011-10-09 10:25:06:210,3.4535,-4.193,-1.1313,42,0,24.5
2011-10-09 10:25:06:220,3.9606,-3.5134,-1.1155,42,0,24.5
2011-10-09 10:25:06:230,3.6238,-2.8453,-1.0163,42,0,24.5
2011-10-09 10:25:06:240,2.869,-2.1618,-0.8972,40,0,24.5
2011-10-09 10:25:06:250,2.4162,-1.5169,-0.8456,40,0,24.5
2011-10-09 10:25:06:260,2.1723,-0.8296,-0.6393,40,0,24.5
2011-10-09 10:25:06:270,1.9168,-0.3083,-0.3496,40,0,24.5
2011-10-09 10:25:06:280,1.7388,0.101,-0.0719,40,0,24.5
2011-10-09 10:25:06:290,1.6498,0.4871,0.0153,40,0,24.5
2011-10-09 10:25:06:300,1.5065,0.7652,-0.048,40,0,24.5
2011-10-09 10:25:06:310,1.2085,1.0046,-0.1472,40,0,24.5
2011-10-09 10:25:06:320,0.8795,1.0857,-0.3298,40,0,24.5
2011-10-09 10:25:06:330,0.5892,1.02,-0.5282,40,0,24.5
2011-10-09 10:25:06:340,0.3686,0.9582,-0.6194,42,0,24.5
2011-10-09 10:25:06:350,0.2563,0.9235,-0.6829,42,0,24.5
2011-10-09 10:25:06:360,0.1518,0.9467,-0.671,42,0,24.5
2011-10-09 10:25:06:370,0.1131,0.9467,-0.6591,42,0,24.5
2011-10-09 10:25:06:380,0.0976,0.9467,-0.6433,42,0,24.5
2011-10-09 10:25:06:390,0.1015,0.9196,-0.6115,42,0,24.5
2011-10-09 10:25:06:400,0.1557,0.8347,-0.5758,42,0,24.5
2011-10-09 10:25:06:410,0.1595,0.7806,-0.5282,42,0,24.5
2011-10-09 10:25:06:420,0.1092,0.7497,-0.4607,45,0,24.5
2011-10-09 10:25:06:430,0.0395,0.6918,-0.4449,45,0,24.5
2011-10-09 10:25:06:440,-0.0339,0.6763,-0.4012,45,0,24.5
2011-10-09 10:25:06:450,-0.092,0.6763,-0.3576,45,0,24.5
2011-10-09 10:25:06:460,-0.0958,0.6455,-0.3695,48,0,24.5
2011-10-09 10:25:06:470,-0.0184,0.5605,-0.3218,48,0,24.5
2011-10-09 10:25:06:480,0.0899,0.4949,-0.2742,48,0,24.5
2011-10-09 10:25:06:490,0.2679,0.4138,-0.2623,48,0,24.5
2011-10-09 10:25:06:500,2.1413,0.0044,-0.8655,45,0,24.5
2011-10-09 10:25:06:510,2.7258,-0.2619,-0.7266,45,0,24.5
2011-10-09 10:25:06:520,3.4226,-0.5902,-0.5004,48,0,24.5
2011-10-09 10:25:06:530,4.0419,-1.042,-0.1671,48,0,24.5
2011-10-09 10:25:06:540,4.5567,-1.6869,0.0511,45,0,24.5
2011-10-09 10:25:06:550,4.8663,-2.1734,0.2495,45,0,24.5
2011-10-09 10:25:06:560,4.5799,-2.3008,0.2534,45,0,24.5
2011-10-09 10:25:06:570,3.8174,-2.0653,0.1225,45,0,24.5
2011-10-09 10:25:06:580,3.0626,-1.8375,0.0114,45,0,24.5
2011-10-09 10:25:06:590,2.3233,-1.571,-0.0203,45,0,24.5
2011-10-09 10:25:06:600,1.7969,-1.3239,0.0074,45,0,24.5
2011-10-09 10:25:06:610,1.464,-1.0535,0.0352,45,0,24.5
2011-10-09 10:25:06:620,1.2627,-0.9184,0.0907,48,0,24.5
2011-10-09 10:25:06:630,1.0537,-0.8103,0.0471,48,0,24.5
2011-10-09 10:25:06:640,0.7285,-0.7832,0.0352,48,0,24.5
2011-10-09 10:25:06:650,0.4073,-0.7755,0.059,50,0,24.5
2011-10-09 10:25:06:660,-0.0145,-0.6828,0.1503,50,0,24.5
2011-10-09 10:25:06:670,-0.3165,-0.54,0.2455,50,0,24.5
2011-10-09 10:25:06:680,-0.4945,-0.3894,0.4201,50,0,24.5
2011-10-09 10:25:06:690,-0.6958,-0.3623,0.5709,50,0,24.5
2011-10-09 10:25:06:700,-0.9358,-0.3855,0.6502,50,0,24.5
2011-10-09 10:25:06:710,-1.2299,-0.4009,0.7018,48,0,24.5
2011-10-09 10:25:06:720,-1.5473,-0.4666,0.6344,48,0,24.5
2011-10-09 10:25:06:730,-1.7022,-0.4627,0.5233,45,0,24.5
2011-10-09 10:25:06:740,-1.6441,-0.4859,0.1225,42,0,24.5
2011-10-09 10:25:06:750,-1.5241,-0.4782,-0.0599,42,0,24.5
2011-10-09 10:25:06:760,-1.4544,-0.3932,-0.0401,42,0,24.5
2011-10-09 10:25:06:770,-1.2067,-0.3585,0.2296,42,0,24.5
2011-10-09 10:25:06:780,-0.6958,-0.4511,0.3209,40,0,24.5
2011-10-09 10:25:06:790,-0.1074,-0.6017,0.3209,37,0,24.5
2011-10-09 10:25:06:800,0.175,-0.6674,0.3725,37,0,24.5
2011-10-09 10:25:06:810,0.1866,-0.6326,0.436,37,0,24.5
2011-10-09 10:25:06:820,0.0821,-0.5515,0.436,40,0,24.5
2011-10-09 10:25:06:830,-0.0416,-0.5477,0.4122,40,0,24.5
2011-10-09 10:25:06:840,-0.0494,-0.6442,0.3883,42,0,24.5
2011-10-09 10:25:06:850,0.086,-0.7021,0.3923,42,0,24.5
2011-10-09 10:25:06:860,0.4769,-0.845,0.3645,45,0,24.5
2011-10-09 10:25:06:870,1.1814,-1.0497,0.428,45,0,24.5
2011-10-09 10:25:06:880,2.2342,-1.5749,0.1185,48,0,24.5
2011-10-09 10:25:06:890,2.6407,-2.4746,-0.3417,45,0,24.5
2011-10-09 10:25:06:900,2.7103,-3.3782,-0.5123,45,0,24.5
2011-10-09 10:25:06:910,3.2174,-3.9189,-0.6869,42,0,24.5
2011-10-09 10:25:06:920,3.8406,-3.8764,-0.6591,40,0,24.5
2011-10-09 10:25:06:930,3.9451,-3.1195,-0.5599,40,0,24.5
2011-10-09 10:25:06:940,3.3993,-2.4785,-0.4329,37,0,24.5
2011-10-09 10:25:06:950,2.5749,-1.8722,-0.3377,37,0,24.5
2011-10-09 10:25:06:960,2.0214,-1.293,-0.1592,34,0,24.5
2011-10-09 10:25:06:970,1.6652,-0.7717,0.1145,32,0,24.5
2011-10-09 10:25:06:980,1.5724,-0.3623,0.4598,32,0,24.5
2011-10-09 10:25:06:990,1.5336,0.0701,0.7534,32,0,24.5
2011-10-09 10:25:07:000,1.5182,0.3713,0.8486,32,0,24.5
2011-10-09 10:25:07:010,1.5104,0.6107,0.7931,32,0,24.5
2011-10-09 10:25:07:020,1.4601,0.7729,0.6264,32,0,24.5
2011-10-09 10:25:07:030,1.3053,0.8926,0.4003,32,0,24.5
2011-10-09 10:25:07:040,1.0692,0.9351,0.1185,32,0,24.5
2011-10-09 10:25:07:050,0.9453,0.9544,0.0034,32,0,24.5
2011-10-09 10:25:07:060,0.8059,0.9235,-0.1314,32,0,24.5
2011-10-09 10:25:07:070,0.6743,0.9389,-0.1988,34,0,24.5
2011-10-09 10:25:07:080,0.5234,0.9389,-0.2623,34,0,24.5
2011-10-09 10:25:07:090,0.4847,0.8347,-0.2028,37,0,24.5
2011-10-09 10:25:07:100,0.3608,0.9119,-0.2147,37,0,24.5
2011-10-09 10:25:07:110,0.2137,0.9158,-0.1909,37,0,24.5
2011-10-09 10:25:07:120,0.1053,0.8965,-0.2464,40,0,24.5
2011-10-09 10:25:07:130,0.0666,0.8578,-0.2464,40,0,24.5
2011-10-09 10:25:07:140,0.1015,0.8501,-0.2822,40,0,24.5
2011-10-09 10:25:07:150,0.2253,0.7459,-0.302,40,0,24.5
2011-10-09 10:25:07:160,0.3415,0.6918,-0.2901,40,0,24.5
2011-10-09 10:25:07:170,0.4227,0.5566,-0.2941,40,0,24.5
2011-10-09 10:25:07:180,0.4692,0.4485,-0.3179,40,0,24.5
2011-10-09 10:25:07:190,0.5195,0.3172,-0.3139,40,0,24.5
2011-10-09 10:25:07:200,0.5195,0.2245,-0.2782,40,0,24.5
2011-10-09 10:25:07:210,0.5892,0.1859,-0.1592,40,0,24.5
2011-10-09 10:25:07:220,0.8911,0.2091,-0.0004,40,0,24.5
2011-10-09 10:25:07:230,1.3827,0.3095,0.1741,40,0,24.5
2011-10-09 10:25:07:240,1.9981,0.3751,0.3209,37,0,24.5
2011-10-09 10:25:07:250,2.6755,0.2554,0.3566,40,0,24.5
2011-10-09 10:25:07:260,3.2522,-0.0148,0.3645,40,0,24.5
2011-10-09 10:25:07:270,3.7593,-0.4936,0.2495,42,0,24.5
2011-10-09 10:25:07:280,3.9528,-1.0999,0.1899,42,0,24.5
2011-10-09 10:25:07:290,3.9683,-1.5903,0.1503,45,0,24.5
2011-10-09 10:25:07:300,3.8716,-1.8259,0.0074,45,0,24.5
2011-10-09 10:25:07:310,3.4767,-1.8375,-0.0361,45,0,24.5
2011-10-09 10:25:07:320,2.9929,-1.7293,0.0471,45,0,24.5
2011-10-09 10:25:07:330,2.571,-1.5401,0.0907,45,0,24.5
2011-10-09 10:25:07:340,2.1452,-1.347,0.1304,45,0,24.5
2011-10-09 10:25:07:350,1.7736,-1.1385,0.178,45,0,24.5
2011-10-09 10:25:07:360,1.4795,-0.984,0.182,45,0,24.5
2011-10-09 10:25:07:370,1.2008,-0.8721,0.2257,45,0,24.5
2011-10-09 10:25:07:380,0.9453,-0.8103,0.2296,48,0,24.5
2011-10-09 10:25:07:390,0.6589,-0.8025,0.2177,48,0,24.5
2011-10-09 10:25:07:400,0.2757,-0.7639,0.2415,48,0,24.5
2011-10-09 10:25:07:410,-0.1036,-0.7369,0.2217,50,0,24.5
2011-10-09 10:25:07:420,-0.4287,-0.6713,0.3368,50,0,24.5
2011-10-09 10:25:07:430,-0.6145,-0.5477,0.4558,53,0,24.5
2011-10-09 10:25:07:440,-0.6687,-0.5013,0.551,53,0,24.5
2011-10-09 10:25:07:450,-0.7577,-0.4859,0.6185,53,0,24.5
2011-10-09 10:25:07:460,-0.8506,-0.54,0.6383,53,0,24.5
2011-10-09 10:25:07:470,-1.0558,-0.5245,0.5947,53,0,24.5
2011-10-09 10:25:07:480,-1.2996,-0.5206,0.551,50,0,24.5
2011-10-09 10:25:07:490,-1.3345,-0.4125,0.4558,50,0,24.5
2011-10-09 10:25:07:500,-1.2106,-0.4048,0.3526,50,0,24.5
2011-10-09 10:25:07:510,-1.0325,-0.4396,0.2257,48,0,24.5
2011-10-09 10:25:07:520,-0.9125,-0.4782,0.1185,48,0,24.5
2011-10-09 10:25:07:530,-0.7732,-0.5361,0.1145,48,0,24.5
2011-10-09 10:25:07:540,-0.6339,-0.5863,0.1265,48,0,24.5
2011-10-09 10:25:07:550,-0.51,-0.6481,0.1503,45,0,24.5
2011-10-09 10:25:07:560,-0.4326,-0.6906,0.2257,45,0,24.5
2011-10-09 10:25:07:570,-0.3784,-0.7523,0.2812,45,0,24.5
2011-10-09 10:25:07:580,-0.2468,-0.818,0.4241,42,0,24.5
2011-10-09 10:25:07:590,0.0473,-0.9223,0.5153,42,0,24.5
2011-10-09 10:25:07:600,0.3879,-0.9879,0.5987,42,0,24.5
2011-10-09 10:25:07:610,0.9066,-1.1269,0.7693,42,0,24.5
2011-10-09 10:25:07:620,1.9672,-1.4243,0.809,45,0,24.5
2011-10-09 10:25:07:630,3.349,-1.8336,0.2376,48,0,24.5
2011-10-09 10:25:07:640,3.4535,-2.0614,-0.1949,48,0,24.5
2011-10-09 10:25:07:650,3.1981,-2.6021,-0.8179,48,0,24.5
2011-10-09 10:25:07:660,2.8381,-3.189,-1.2583,45,0,24.5
2011-10-09 10:25:07:670,3.1477,-3.3049,-1.5004,45,0,24.5
2011-10-09 10:25:07:680,3.4264,-3.1697,-1.2504,42,0,24.5
2011-10-09 10:25:07:690,3.1942,-2.66,-0.8932,42,0,24.5
2011-10-09 10:25:07:700,2.5207,-1.9301,-0.421,42,0,24.5
2011-10-09 10:25:07:710,2.2691,-1.3277,-0.1869,42,0,24.5
2011-10-09 10:25:07:720,2.1955,-0.7601,-0.1353,42,0,24.5
2011-10-09 10:25:07:730,2.0175,-0.2465,-0.0639,40,0,24.5
2011-10-09 10:25:07:740,1.704,0.1241,-0.0044,40,0,24.5
2011-10-09 10:25:07:750,1.3866,0.3829,0.1026,40,0,24.5
2011-10-09 10:25:07:760,1.1969,0.6184,0.1304,42,0,24.5
2011-10-09 10:25:07:770,1.1156,0.7806,0.0987,42,0,24.5
2011-10-09 10:25:07:780,0.9763,0.9351,-0.048,42,0,24.5
2011-10-09 10:25:07:790,0.7479,0.966,-0.1949,42,0,24.5
2011-10-09 10:25:07:800,0.4847,0.9505,-0.3099,42,0,24.5
2011-10-09 10:25:07:810,0.3144,0.9042,-0.421,42,0,24.5
2011-10-09 10:25:07:820,0.1479,0.9158,-0.4647,42,0,24.5
2011-10-09 10:25:07:830,0.0357,0.9389,-0.4806,45,0,24.5
2011-10-09 10:25:07:840,-0.061,0.9814,-0.4449,45,0,24.5
2011-10-09 10:25:07:850,-0.0649,1.0123,-0.4449,45,0,24.5
2011-10-09 10:25:07:860,-0.0571,1.0046,-0.4369,48,0,24.5
2011-10-09 10:25:07:870,0.0008,0.9891,-0.4449,48,0,24.5
2011-10-09 10:25:07:880,0.0512,0.9505,-0.4409,48,0,24.5
2011-10-09 10:25:07:890,0.1286,0.8617,-0.4726,48,0,24.5
2011-10-09 10:25:07:900,0.1634,0.7806,-0.4726,48,0,24.5
2011-10-09 10:25:07:910,0.206,0.6841,-0.5123,48,0,24.5
2011-10-09 10:25:07:920,0.2602,0.5682,-0.5163,50,0,24.5
2011-10-09 10:25:07:930,0.2408,0.5064,-0.4964,50,0,24.5
2011-10-09 10:25:07:940,0.2795,0.4408,-0.4528,50,0,24.5
2011-10-09 10:25:07:950,0.4421,0.352,-0.4369,53,0,24.5
2011-10-09 10:25:07:960,0.6395,0.3211,-0.4171,53,0,24.5
2011-10-09 10:25:07:970,0.9376,0.3018,-0.421,53,0,24.5
2011-10-09 10:25:07:980,1.4911,0.3404,-0.5639,53,0,24.5
2011-10-09 10:25:07:990,2.0833,0.2747,-0.7782,56,0,24.5
2011-10-09 10:25:08:000,2.7413,0.0083,-1.0083,56,0,24.5
2011-10-09 10:25:08:010,3.4303,-0.3932,-1.2861,56,0,24.5
2011-10-09 10:25:08:020,3.6935,-0.8334,-1.2901,56,0,24.5
2011-10-09 10:25:08:030,3.74,-1.3779,-1.1353,56,0,24.5
2011-10-09 10:25:08:040,4.1386,-1.6482,-0.8655,56,0,24.5
2011-10-09 10:25:08:050,4.5064,-1.7023,-0.6869,56,0,24.5
2011-10-09 10:25:08:060,4.1928,-1.6521,-0.4568,56,0,24.5
2011-10-09 10:25:08:070,3.7206,-1.6753,-0.3457,56,0,24.5
2011-10-09 10:25:08:080,2.9581,-1.6946,-0.3576,56,0,24.5
2011-10-09 10:25:08:090,2.4123,-1.598,-0.3298,58,0,24.5
2011-10-09 10:25:08:100,1.882,-1.4397,-0.2385,58,0,24.5
2011-10-09 10:25:08:110,1.4175,-1.2621,-0.1036,58,0,24.5
2011-10-09 10:25:08:120,1.0072,-1.1501,0.0233,58,0,24.5
2011-10-09 10:25:08:130,0.5002,-1.0806,0.0987,58,0,24.5
2011-10-09 10:25:08:140,0.0008,-1.0497,0.1939,61,0,24.5
2011-10-09 10:25:08:150,-0.3668,-0.9879,0.2098,61,0,24.5
2011-10-09 10:25:08:160,-0.6764,-0.8836,0.3169,58,0,24.5
2011-10-09 10:25:08:170,-0.87,-0.7137,0.5074,58,0,24.5
2011-10-09 10:25:08:180,-0.8467,-0.5515,0.6939,58,0,24.5
2011-10-09 10:25:08:190,-0.7035,-0.5129,0.8169,58,0,24.5
2011-10-09 10:25:08:200,-0.7035,-0.5515,0.9161,58,0,24.5
2011-10-09 10:25:08:210,-1.0016,-0.6519,0.8923,58,0,24.5
2011-10-09 10:25:08:220,-1.3228,-0.679,0.8169,56,0,24.5
2011-10-09 10:25:08:230,-1.5086,-0.6442,0.6066,56,0,24.5
2011-10-09 10:25:08:240,-1.497,-0.6713,0.4399,56,0,24.5
2011-10-09 10:25:08:250,-1.2493,-0.7292,0.301,53,0,24.5
2011-10-09 10:25:08:260,-0.959,-0.7717,0.2614,53,0,24.5
2011-10-09 10:25:08:270,-0.7964,-0.7678,0.1622,53,0,24.5
2011-10-09 10:25:08:280,-0.6997,-0.7485,0.1701,53,0,24.5
2011-10-09 10:25:08:290,-0.5758,-0.706,0.2891,53,0,24.5
2011-10-09 10:25:08:300,-0.4481,-0.7176,0.3407,53,0,24.5
2011-10-09 10:25:08:310,-0.3668,-0.7176,0.4399,53,0,24.5
2011-10-09 10:25:08:320,-0.2197,-0.7948,0.428,53,0,24.5
2011-10-09 10:25:08:330,-0.061,-0.9029,0.3407,53,0,24.5
2011-10-09 10:25:08:340,0.1557,-0.9995,0.309,53,0,24.5
2011-10-09 10:25:08:350,0.4963,-1.1231,0.2931,53,0,24.5
2011-10-09 10:25:08:360,1.2511,-1.32,0.1582,53,0,24.5
2011-10-09 10:25:08:370,2.1917,-1.6869,-0.3218,56,0,24.5
2011-10-09 10:25:08:380,3.2484,-2.5016,-1.0321,53,0,24.5
2011-10-09 10:25:08:390,3.2987,-3.2701,-1.4408,53,0,24.5
2011-10-09 10:25:08:400,3.0703,-3.9575,-1.5242,50,0,24.5
2011-10-09 10:25:08:410,3.5619,-3.8455,-1.3655,50,0,24.5
2011-10-09 10:25:08:420,3.949,-3.1156,-1.0797,48,0,24.5
2011-10-09 10:25:08:430,3.6432,-2.4051,-0.8734,48,0,24.5
2011-10-09 10:25:08:440,3.0858,-1.8606,-0.7306,45,0,24.5
2011-10-09 10:25:08:450,2.6291,-1.2196,-0.6671,45,0,24.5
2011-10-09 10:25:08:460,2.242,-0.6906,-0.5758,45,0,24.5
2011-10-09 10:25:08:470,1.9865,-0.2542,-0.4607,42,0,24.5
2011-10-09 10:25:08:480,1.6575,0.1743,-0.2941,42,0,24.5
2011-10-09 10:25:08:490,1.4446,0.3945,-0.1909,42,0,24.5
2011-10-09 10:25:08:500,1.2743,0.5914,-0.179,42,0,24.5
2011-10-09 10:25:08:510,1.135,0.6879,-0.2504,42,0,24.5
2011-10-09 10:25:08:520,1.0227,0.769,-0.3377,42,0,24.5
2011-10-09 10:25:08:530,0.7982,0.827,-0.4091,42,0,24.5
2011-10-09 10:25:08:540,0.6356,0.8347,-0.5123,42,0,24.5
2011-10-09 10:25:08:550,0.4769,0.854,-0.548,42,0,24.5
2011-10-09 10:25:08:560,0.3144,0.9196,-0.5758,42,0,24.5
2011-10-09 10:25:08:570,0.2253,0.9621,-0.5599,42,0,24.5
2011-10-09 10:25:08:580,0.1634,1.0162,-0.548,42,0,24.5
2011-10-09 10:25:08:590,0.117,1.0355,-0.5202,42,0,24.5
2011-10-09 10:25:08:600,0.1015,1.0818,-0.4488,45,0,24.5
2011-10-09 10:25:08:610,0.1402,1.0895,-0.4568,45,0,24.5
2011-10-09 10:25:08:620,0.1905,1.0548,-0.4171,45,0,24.5
2011-10-09 10:25:08:630,0.1789,0.993,-0.4409,45,0,24.5
2011-10-09 10:25:08:640,0.2524,0.854,-0.425,45,0,24.5
2011-10-09 10:25:08:650,0.2718,0.7536,-0.4568,45,0,24.5
2011-10-09 10:25:08:660,0.237,0.6377,-0.4369,45,0,24.5
2011-10-09 10:25:08:670,0.2563,0.603,-0.4131,45,0,24.5
2011-10-09 10:25:08:680,0.3376,0.4987,-0.4488,45,0,24.5
2011-10-09 10:25:08:690,0.4615,0.4949,-0.3457,48,0,24.5
2011-10-09 10:25:08:700,0.775,0.5142,-0.3258,48,0,24.5
2011-10-09 10:25:08:710,1.2317,0.5644,-0.3298,48,0,24.5
2011-10-09 10:25:08:720,1.8627,0.6261,-0.4052,48,0,24.5
2011-10-09 10:25:08:730,2.8497,0.4717,-0.5322,50,0,24.5
2011-10-09 10:25:08:740,3.7748,0.0469,-0.6829,53,0,24.5
2011-10-09 10:25:08:750,3.8987,-0.4202,-0.7226,53,0,24.5
2011-10-09 10:25:08:760,4.0264,-0.9107,-0.8258,53,0,24.5
2011-10-09 10:25:08:770,4.398,-1.4513,-0.794,53,0,24.5
2011-10-09 10:25:08:780,4.4986,-1.7371,-0.7187,53,0,24.5
2011-10-09 10:25:08:790,4.0264,-1.8877,-0.6234,53,0,24.5
2011-10-09 10:25:08:800,3.5232,-1.9456,-0.4806,53,0,24.5
2011-10-09 10:25:08:810,2.8729,-1.7448,-0.2425,53,0,24.5
2011-10-09 10:25:08:820,2.3465,-1.4629,-0.0639,53,0,24.5
2011-10-09 10:25:08:830,1.9517,-1.2544,0.1304,53,0,24.5
2011-10-09 10:25:08:840,1.6575,-1.2196,0.2415,53,0,24.5
2011-10-09 10:25:08:850,1.2588,-1.2157,0.2772,53,0,24.5
2011-10-09 10:25:08:860,0.8253,-1.1771,0.2336,53,0,24.5
2011-10-09 10:25:08:870,0.3569,-1.1424,0.2098,53,0,24.5
2011-10-09 10:25:08:880,-0.092,-1.069,0.2138,56,0,24.5
2011-10-09 10:25:08:890,-0.4055,-0.9918,0.1701,56,0,24.5
2011-10-09 10:25:08:900,-0.5603,-0.8952,0.1899,56,0,24.5
2011-10-09 10:25:08:910,-0.688,-0.7871,0.2772,56,0,24.5
2011-10-09 10:25:08:920,-0.6842,-0.6944,0.4042,56,0,24.5
2011-10-09 10:25:08:930,-0.6106,-0.6944,0.4756,58,0,24.5
2011-10-09 10:25:08:940,-0.6377,-0.7446,0.6106,58,0,24.5
2011-10-09 10:25:08:950,-0.8932,-0.7485,0.6661,58,0,24.5
2011-10-09 10:25:08:960,-1.0983,-0.7253,0.6741,58,0,24.5
2011-10-09 10:25:08:970,-1.2067,-0.7176,0.6145,58,0,24.5
2011-10-09 10:25:08:980,-1.1525,-0.706,0.5471,58,0,24.5
2011-10-09 10:25:08:990,-0.9861,-0.7137,0.5034,58,0,24.5
2011-10-09 10:25:09:000,-0.7926,-0.7215,0.4796,56,0,24.5
2011-10-09 10:25:09:010,-0.5681,-0.7639,0.428,56,0,24.5
2011-10-09 10:25:09:020,-0.4248,-0.7678,0.428,53,0,24.5
2011-10-09 10:25:09:030,-0.3087,-0.7639,0.3487,53,0,24.5
2011-10-09 10:25:09:040,-0.2313,-0.7794,0.3249,53,0,24.5
2011-10-09 10:25:09:050,-0.1152,-0.8219,0.2534,50,0,24.5
2011-10-09 10:25:09:060,0.0434,-0.8914,0.1503,50,0,24.5
2011-10-09 10:25:09:070,0.2563,-0.9686,0.1423,50,0,24.5
2011-10-09 10:25:09:080,0.7905,-1.0999,0.1463,50,0,24.5
2011-10-09 10:25:09:090,1.5917,-1.3432,-0.048,50,0,24.5
2011-10-09 10:25:09:100,2.2304,-1.6444,-0.5599,50,0,24.5
2011-10-09 10:25:09:110,2.8419,-2.2082,-1.2226,50,0,24.5
2011-10-09 10:25:09:120,3.0239,-3.2083,-1.8654,50,0,24.5
2011-10-09 10:25:09:130,2.8923,-4.027,-1.9805,50,0,24.5
2011-10-09 10:25:09:140,3.4303,-3.8223,-1.6869,50,0,24.5
2011-10-09 10:25:09:150,3.8329,-3.2006,-1.3694,48,0,24.5
2011-10-09 10:25:09:160,3.4922,-2.4399,-1.0599,48,0,24.5
2011-10-09 10:25:09:170,2.989,-1.8915,-0.8298,48,0,24.5
2011-10-09 10:25:09:180,2.6291,-1.2196,-0.8099,45,0,24.5
2011-10-09 10:25:09:190,2.1646,-0.6056,-0.7147,45,0,24.5
2011-10-09 10:25:09:200,1.8356,-0.1654,-0.5917,42,0,24.5
2011-10-09 10:25:09:210,1.4949,0.2632,-0.4012,42,0,24.5
2011-10-09 10:25:09:220,1.224,0.5142,-0.2504,42,0,24.5
2011-10-09 10:25:09:230,1.0382,0.7111,-0.2266,42,0,24.5
2011-10-09 10:25:09:240,0.9453,0.8115,-0.2464,42,0,24.5
2011-10-09 10:25:09:250,0.8447,0.9042,-0.2822,42,0,24.5
2011-10-09 10:25:09:260,0.6782,0.9312,-0.3695,42,0,24.5
2011-10-09 10:25:09:270,0.4576,0.9196,-0.4131,42,0,24.5
2011-10-09 10:25:09:280,0.2989,0.9235,-0.5004,45,0,24.5
2011-10-09 10:25:09:290,0.1712,0.9698,-0.5361,45,0,24.5
2011-10-09 10:25:09:300,0.0512,0.993,-0.5083,45,0,24.5
2011-10-09 10:25:09:310,-0.0184,1.0046,-0.4766,45,0,24.5
2011-10-09 10:25:09:320,-0.0726,0.993,-0.425,45,0,24.5
2011-10-09 10:25:09:330,-0.1152,1.0278,-0.3853,48,0,24.5
2011-10-09 10:25:09:340,-0.0455,1.0084,-0.3179,48,0,24.5
2011-10-09 10:25:09:350,0.0047,0.9467,-0.3139,48,0,24.5
2011-10-09 10:25:09:360,0.086,0.8694,-0.3377,48,0,24.5
2011-10-09 10:25:09:370,0.1131,0.7806,-0.3774,50,0,24.5
2011-10-09 10:25:09:380,0.1324,0.6763,-0.3893,50,0,24.5
2011-10-09 10:25:09:390,0.1479,0.5296,-0.4329,50,0,24.5
2011-10-09 10:25:09:400,0.1015,0.4138,-0.4369,50,0,24.5
2011-10-09 10:25:09:410,0.1982,0.3713,-0.4409,53,0,24.5
2011-10-09 10:25:09:420,0.4382,0.4099,-0.4449,53,0,24.5
2011-10-09 10:25:09:430,0.6589,0.3558,-0.4687,53,0,24.5
2011-10-09 10:25:09:440,1.0421,0.294,-0.5322,53,0,24.5
2011-10-09 10:25:09:450,1.4485,0.2593,-0.5996,53,0,24.5
2011-10-09 10:25:09:460,1.9362,0.2207,-0.6194,53,0,24.5
2011-10-09 10:25:09:470,2.5168,0.101,-0.8059,56,0,24.5
2011-10-09 10:25:09:480,3.2716,-0.1654,-1.0639,56,0,24.5
2011-10-09 10:25:09:490,3.9993,-0.8103,-1.2702,58,0,24.5
2011-10-09 10:25:09:500,3.2213,-1.8452,-0.4885,58,0,24.5
2011-10-09 10:25:09:510,2.7916,-1.7795,-0.3655,58,0,24.5
2011-10-09 10:25:09:520,2.211,-1.571,-0.306,58,0,24.5
2011-10-09 10:25:09:530,1.7543,-1.4127,-0.2861,58,0,24.5
2011-10-09 10:25:09:540,1.4369,-1.3046,-0.2345,58,0,24.5
2011-10-09 10:25:09:550,1.0692,-1.1887,-0.1433,58,0,24.5
2011-10-09 10:25:09:560,0.6395,-1.0767,-0.0719,58,0,24.5
2011-10-09 10:25:09:570,0.206,-0.984,0.0074,58,0,24.5
2011-10-09 10:25:09:580,-0.1539,-0.8798,0.0907,58,0,24.5
2011-10-09 10:25:09:590,-0.4674,-0.7987,0.1384,58,0,24.5
2011-10-09 10:25:09:600,-0.6919,-0.6983,0.3288,58,0,24.5
2011-10-09 10:25:09:610,-0.7616,-0.5129,0.4875,58,0,24.5
2011-10-09 10:25:09:620,-0.7268,-0.428,0.6304,58,0,24.5
2011-10-09 10:25:09:630,-0.8119,-0.4357,0.7494,58,0,24.5
2011-10-09 10:25:09:640,-1.0519,-0.482,0.8169,58,0,24.5
2011-10-09 10:25:09:650,-1.2996,-0.4975,0.7256,56,0,24.5
2011-10-09 10:25:09:660,-1.4622,-0.428,0.6185,56,0,24.5
2011-10-09 10:25:09:670,-1.3925,-0.4202,0.5193,56,0,24.5
2011-10-09 10:25:09:680,-1.1912,-0.4627,0.3606,53,0,24.5
2011-10-09 10:25:09:690,-0.959,-0.5438,0.3209,53,0,24.5
2011-10-09 10:25:09:700,-0.6919,-0.6056,0.3764,50,0,24.5
2011-10-09 10:25:09:710,-0.3939,-0.6404,0.4122,50,0,24.5
2011-10-09 10:25:09:720,-0.239,-0.6519,0.4399,50,0,24.5
2011-10-09 10:25:09:730,-0.181,-0.679,0.4082,50,0,24.5
2011-10-09 10:25:09:740,-0.1655,-0.6906,0.3566,48,0,24.5
2011-10-09 10:25:09:750,-0.0881,-0.7292,0.3368,50,0,24.5
2011-10-09 10:25:09:760,0.2021,-0.8643,0.301,50,0,24.5
2011-10-09 10:25:09:770,0.8872,-1.0149,0.3685,50,0,24.5
2011-10-09 10:25:09:780,1.8123,-1.347,0.1066,50,0,24.5
2011-10-09 10:25:09:790,2.6755,-1.9417,-0.5163,53,0,24.5
2011-10-09 10:25:09:800,3.291,-3.0848,-1.7107,53,0,24.5
2011-10-09 10:25:09:810,2.7916,-4.3475,-2.3892,50,0,24.5
2011-10-09 10:25:09:820,3.109,-4.6139,-2.3297,50,0,24.5
2011-10-09 10:25:09:830,3.5696,-3.4091,-1.5916,48,0,24.5
2011-10-09 10:25:09:840,3.4497,-2.5982,-0.929,48,0,24.5
2011-10-09 10:25:09:850,2.9697,-2.0421,-0.6552,45,0,24.5
2011-10-09 10:25:09:860,2.7761,-1.3895,-0.6393,45,0,24.5
2011-10-09 10:25:09:870,2.4587,-0.733,-0.7147,42,0,24.5
2011-10-09 10:25:09:880,2.0755,-0.1499,-0.679,42,0,24.5
2011-10-09 10:25:09:890,1.7001,0.1782,-0.5599,42,0,24.5
2011-10-09 10:25:09:900,1.2782,0.3945,-0.3853,42,0,24.5
2011-10-09 10:25:09:910,1.0305,0.5644,-0.3298,42,0,24.5
2011-10-09 10:25:09:920,0.9221,0.6879,-0.3814,42,0,24.5
2011-10-09 10:25:09:930,0.8253,0.7574,-0.5004,45,0,24.5
2011-10-09 10:25:09:940,0.6434,0.8038,-0.556,45,0,24.5
2011-10-09 10:25:09:950,0.4886,0.8192,-0.5639,45,0,24.5
2011-10-09 10:25:09:960,0.295,0.8501,-0.5877,45,0,24.5
2011-10-09 10:25:09:970,0.1402,0.9351,-0.5679,45,0,24.5
2011-10-09 10:25:09:980,-0.0029,0.9891,-0.556,48,0,24.5
2011-10-09 10:25:09:990,-0.0881,1.0934,-0.4647,48,0,24.5
2011-10-09 10:25:10:000,-0.15,1.1784,-0.4012,48,0,24.5
2011-10-09 10:25:10:010,-0.0958,1.1629,-0.3972,48,0,24.5
2011-10-09 10:25:10:020,-0.0958,1.0741,-0.3814,48,0,24.5
2011-10-09 10:25:10:030,-0.061,0.993,-0.429,50,0,24.5
2011-10-09 10:25:10:040,-0.061,0.8849,-0.4806,50,0,24.5
2011-10-09 10:25:10:050,-0.0532,0.7729,-0.5083,50,0,24.5
2011-10-09 10:25:10:060,-0.0029,0.7034,-0.5282,50,0,24.5
2011-10-09 10:25:10:070,0.0821,0.5953,-0.552,50,0,24.5
2011-10-09 10:25:10:080,0.2331,0.4601,-0.5202,53,0,24.5
2011-10-09 10:25:10:090,0.3763,0.3751,-0.5004,53,0,24.5
2011-10-09 10:25:10:100,0.5427,0.3404,-0.4488,53,0,24.5
2011-10-09 10:25:10:110,0.7982,0.2902,-0.4568,53,0,24.5
2011-10-09 10:25:10:120,1.1814,0.3018,-0.4687,53,0,24.5
2011-10-09 10:25:10:130,1.7814,0.3056,-0.7504,56,0,24.5
2011-10-09 10:25:10:140,2.4084,0.1357,-0.9964,56,0,24.5
2011-10-09 10:25:10:150,3.1516,-0.2658,-1.4567,58,0,24.5
2011-10-09 10:25:10:160,3.5464,-0.7987,-1.6194,58,0,24.5
2011-10-09 10:25:10:170,3.5,-1.3663,-1.5242,58,0,24.5
2011-10-09 10:25:10:180,3.5232,-1.8877,-1.3496,61,0,24.5
2011-10-09 10:25:10:190,3.6045,-1.9456,-1.0202,61,0,24.5
2011-10-09 10:25:10:200,3.4419,-1.822,-0.8496,61,0,24.5
2011-10-09 10:25:10:210,3.1013,-1.5826,-0.6988,61,0,24.5
2011-10-09 10:25:10:220,2.6291,-1.4938,-0.4528,61,0,24.5
2011-10-09 10:25:10:230,2.1607,-1.3934,-0.3695,61,0,24.5
2011-10-09 10:25:10:240,1.704,-1.2775,-0.3179,61,0,24.5
2011-10-09 10:25:10:250,1.2704,-1.1771,-0.2663,58,0,24.5
2011-10-09 10:25:10:260,0.9182,-1.0497,-0.1949,58,0,24.5
2011-10-09 10:25:10:270,0.5814,-0.9647,-0.1472,58,0,24.5
2011-10-09 10:25:10:280,0.3221,-0.8412,-0.0679,58,0,24.5
2011-10-09 10:25:10:290,0.0512,-0.7369,0.063,58,0,24.5
2011-10-09 10:25:10:300,-0.1113,-0.6674,0.1304,58,0,24.5
2011-10-09 10:25:10:310,-0.2003,-0.621,0.2138,58,0,24.5
2011-10-09 10:25:10:320,-0.27,-0.5824,0.2891,58,0,24.5
2011-10-09 10:25:10:330,-0.3706,-0.5902,0.4042,58,0,24.5
2011-10-09 10:25:10:340,-0.541,-0.5863,0.4915,56,0,24.5
2011-10-09 10:25:10:350,-0.7384,-0.5747,0.5114,56,0,24.5
2011-10-09 10:25:10:360,-0.8893,-0.5091,0.5629,56,0,24.5
2011-10-09 10:25:10:370,-0.9513,-0.4396,0.5788,56,0,24.5
2011-10-09 10:25:10:380,-0.9396,-0.4087,0.5669,53,0,24.5
2011-10-09 10:25:10:390,-0.9358,-0.3662,0.5193,53,0,24.5
2011-10-09 10:25:10:400,-0.8738,-0.343,0.4161,53,0,24.5
2011-10-09 10:25:10:410,-0.8506,-0.3469,0.305,50,0,24.5
2011-10-09 10:25:10:420,-0.8235,-0.3392,0.309,50,0,24.5
2011-10-09 10:25:10:430,-0.6184,-0.3469,0.3407,50,0,24.5
2011-10-09 10:25:10:440,-0.3552,-0.4202,0.3725,50,0,24.5
2011-10-09 10:25:10:450,-0.1461,-0.5091,0.3368,50,0,24.5
2011-10-09 10:25:10:460,-0.1074,-0.5438,0.2653,50,0,24.5
2011-10-09 10:25:10:470,-0.1036,-0.6017,0.2058,50,0,24.5
2011-10-09 10:25:10:480,-0.0262,-0.706,0.1384,50,0,24.5
2011-10-09 10:25:10:490,0.1053,-0.8141,0.063,50,0,24.5
2011-10-09 10:25:10:500,0.3492,-0.9763,-0.052,50,0,24.5
2011-10-09 10:25:10:510,1.0846,-1.2659,-0.2385,50,0,24.5
2011-10-09 10:25:10:520,2.1104,-1.7332,-0.6829,50,0,24.5
2011-10-09 10:25:10:530,2.6136,-2.3472,-0.9647,50,0,24.5
2011-10-09 10:25:10:540,2.6755,-2.9303,-1.1115,50,0,24.5
2011-10-09 10:25:10:550,2.7336,-3.3666,-1.2583,50,0,24.5
2011-10-09 10:25:10:560,3.2522,-3.1041,-1.5004,50,0,24.5
2011-10-09 10:25:10:570,3.6703,-2.7835,-1.6313,48,0,24.5
2011-10-09 10:25:10:580,3.5155,-2.4592,-1.4567,48,0,24.5
2011-10-09 10:25:10:590,2.9658,-2.0112,-1.179,45,0,24.5
2011-10-09 10:25:10:600,2.4781,-1.5478,-0.8893,45,0,24.5
2011-10-09 10:25:10:610,2.0949,-1.0188,-0.7187,45,0,24.5
2011-10-09 10:25:10:620,1.7465,-0.482,-0.5837,45,0,24.5
2011-10-09 10:25:10:630,1.5453,-0.1229,-0.5202,45,0,24.5
2011-10-09 10:25:10:640,1.2898,0.128,-0.3972,45,0,24.5
2011-10-09 10:25:10:650,1.0343,0.3327,-0.2663,45,0,24.5
2011-10-09 10:25:10:660,0.8911,0.5296,-0.1512,45,0,24.5
2011-10-09 10:25:10:670,0.7285,0.7922,-0.1552,45,0,24.5
2011-10-09 10:25:10:680,0.624,0.9505,-0.1472,48,0,24.5
2011-10-09 10:25:10:690,0.4692,1.0741,-0.2028,48,0,24.5
2011-10-09 10:25:10:700,0.3531,1.105,-0.2028,48,0,24.5
2011-10-09 10:25:10:710,0.2757,1.1436,-0.2345,48,0,24.5
2011-10-09 10:25:10:720,0.2137,1.2092,-0.2425,50,0,24.5
2011-10-09 10:25:10:730,0.1905,1.2903,-0.2544,50,0,24.5
2011-10-09 10:25:10:740,0.1866,1.4139,-0.2425,50,0,24.5
2011-10-09 10:25:10:750,0.2253,1.4487,-0.2782,50,0,24.5
2011-10-09 10:25:10:760,0.3066,1.3792,-0.3377,50,0,24.5
2011-10-09 10:25:10:770,0.3608,1.2556,-0.4369,50,0,24.5
2011-10-09 10:25:10:780,0.3569,1.0741,-0.5361,50,0,24.5
2011-10-09 10:25:10:790,0.3182,0.9467,-0.6274,50,0,24.5
2011-10-09 10:25:10:800,0.3608,0.7806,-0.6869,50,0,24.5
2011-10-09 10:25:10:810,0.4808,0.5257,-0.6829,50,0,24.5
2011-10-09 10:25:10:820,0.6085,0.3945,-0.5996,50,0,24.5
2011-10-09 10:25:10:830,0.8098,0.3443,-0.4528,50,0,24.5
2011-10-09 10:25:10:840,1.1698,0.3558,-0.3576,50,0,24.5
2011-10-09 10:25:10:850,1.7001,0.406,-0.3139,53,0,24.5
2011-10-09 10:25:10:860,2.3658,0.3443,-0.5361,53,0,24.5
2011-10-09 10:25:10:870,2.8768,0.1126,-0.7821,56,0,24.5
2011-10-09 10:25:10:880,3.2019,-0.2233,-1.1313,58,0,24.5
2011-10-09 10:25:10:890,3.3297,-0.4704,-1.425,61,0,24.5
2011-10-09 10:25:10:900,3.4264,-0.8875,-1.6869,61,0,24.5
2011-10-09 10:25:10:910,3.4574,-1.2737,-1.671,64,0,24.5
2011-10-09 10:25:10:920,3.2871,-1.4011,-1.3655,64,0,24.5
2011-10-09 10:25:10:930,3.1168,-1.4165,-0.921,64,0,24.5
2011-10-09 10:25:10:940,2.8652,-1.3393,-0.5401,64,0,24.5
2011-10-09 10:25:10:950,2.4394,-1.2312,-0.298,64,0,24.5
2011-10-09 10:25:10:960,2.1026,-1.2042,-0.2663,64,0,24.5
2011-10-09 10:25:10:970,1.6923,-1.0806,-0.2464,64,0,24.5
2011-10-09 10:25:10:980,1.282,-1.0227,-0.2385,64,0,24.5
2011-10-09 10:25:10:990,0.8601,-0.9725,-0.179,64,0,24.5
2011-10-09 10:25:11:000,0.446,-0.9029,-0.0957,64,0,24.5
2011-10-09 10:25:11:010,0.1402,-0.8334,0.0471,64,0,24.5
2011-10-09 10:25:11:020,-0.1268,-0.7832,0.1582,64,0,24.5
2011-10-09 10:25:11:030,-0.301,-0.7446,0.2772,64,0,24.5
2011-10-09 10:25:11:040,-0.4674,-0.6558,0.4479,64,0,24.5
2011-10-09 10:25:11:050,-0.5913,-0.6017,0.5987,64,0,24.5
2011-10-09 10:25:11:060,-0.688,-0.5863,0.7693,64,0,24.5
2011-10-09 10:25:11:070,-0.7809,-0.6442,0.8447,61,0,24.5
2011-10-09 10:25:11:080,-0.9706,-0.6442,0.8606,61,0,24.5
2011-10-09 10:25:11:090,-1.0867,-0.5786,0.7931,61,0,24.5
2011-10-09 10:25:11:100,-1.11,-0.4859,0.6979,58,0,24.5
2011-10-09 10:25:11:110,-1.0403,-0.4589,0.6106,58,0,24.5
2011-10-09 10:25:11:120,-0.8429,-0.482,0.5471,56,0,24.5
2011-10-09 10:25:11:130,-0.5797,-0.5477,0.4717,56,0,24.5
2011-10-09 10:25:11:140,-0.4519,-0.6404,0.4717,56,0,24.5
2011-10-09 10:25:11:150,-0.2932,-0.6906,0.4558,53,0,24.5
2011-10-09 10:25:11:160,-0.1732,-0.7523,0.436,53,0,24.5
2011-10-09 10:25:11:170,-0.1423,-0.8219,0.3685,53,0,24.5
2011-10-09 10:25:11:180,-0.1616,-0.8798,0.2931,53,0,24.5
2011-10-09 10:25:11:190,-0.1849,-0.9223,0.2614,53,0,24.5
2011-10-09 10:25:11:200,-0.1423,-0.984,0.2296,53,0,24.5
2011-10-09 10:25:11:210,0.0241,-1.1115,0.1344,50,0,24.5
2011-10-09 10:25:11:220,0.5931,-1.3934,0.0034,50,0,24.5
2011-10-09 10:25:11:230,1.4098,-1.7525,-0.183,50,0,24.5
2011-10-09 10:25:11:240,2.5207,-2.324,-0.6393,50,0,24.5
2011-10-09 10:25:11:250,3.4729,-3.023,-1.0361,50,0,24.5
2011-10-09 10:25:11:260,3.3877,-3.8107,-1.3615,50,0,24.5
2011-10-09 10:25:11:270,3.109,-3.9382,-1.4845,50,0,24.5
2011-10-09 10:25:11:280,3.4264,-3.5095,-1.3655,48,0,24.5
2011-10-09 10:25:11:290,3.6432,-2.9573,-1.3218,48,0,24.5
2011-10-09 10:25:11:300,3.2793,-2.2082,-1.2424,48,0,24.5
2011-10-09 10:25:11:310,2.7297,-1.6289,-1.0797,48,0,24.5
2011-10-09 10:25:11:320,2.122,-1.0265,-0.9052,48,0,24.5
2011-10-09 10:25:11:330,1.8007,-0.6017,-0.7544,50,0,24.5
2011-10-09 10:25:11:340,1.5065,-0.2117,-0.6512,50,0,24.5
2011-10-09 10:25:11:350,1.282,0.1357,-0.5361,50,0,24.5
2011-10-09 10:25:11:360,1.0459,0.3906,-0.4885,50,0,24.5
2011-10-09 10:25:11:370,0.8601,0.603,-0.4766,50,0,24.5
2011-10-09 10:25:11:380,0.7131,0.7536,-0.5083,50,0,24.5
2011-10-09 10:25:11:390,0.6008,0.8347,-0.5441,50,0,24.5
2011-10-09 10:25:11:400,0.4382,0.8733,-0.5718,50,0,24.5
2011-10-09 10:25:11:410,0.3066,0.9158,-0.5718,48,0,24.5
2011-10-09 10:25:11:420,0.1828,1.0046,-0.5718,48,0,24.5
2011-10-09 10:25:11:430,0.0937,1.0548,-0.5282,48,0,24.5
2011-10-09 10:25:11:440,0.0589,1.0934,-0.5044,48,0,24.5
2011-10-09 10:25:11:450,0.1673,1.1243,-0.4052,48,0,24.5
2011-10-09 10:25:11:460,0.2834,1.1436,-0.425,48,0,24.5
2011-10-09 10:25:11:470,0.3221,1.132,-0.4329,48,0,24.5
2011-10-09 10:25:11:480,0.264,1.0973,-0.4647,48,0,24.5
2011-10-09 10:25:11:490,0.1518,1.0239,-0.5401,48,0,24.5
2011-10-09 10:25:11:500,0.1789,1.0471,-0.5679,48,0,24.5
2011-10-09 10:25:11:510,0.3028,0.9351,-0.6115,50,0,24.5
2011-10-09 10:25:11:520,0.3531,0.7574,-0.6353,50,0,24.5
2011-10-09 10:25:11:530,0.3995,0.6184,-0.6155,50,0,24.5
2011-10-09 10:25:11:540,0.4808,0.5142,-0.5877,50,0,24.5
2011-10-09 10:25:11:550,0.6202,0.3867,-0.5242,50,0,24.5
2011-10-09 10:25:11:560,0.744,0.3288,-0.4568,50,0,24.5
2011-10-09 10:25:11:570,0.9337,0.294,-0.3695,50,0,24.5
2011-10-09 10:25:11:580,1.3595,0.3288,-0.3695,50,0,24.5
2011-10-09 10:25:11:590,2.0136,0.1821,-0.5242,50,0,24.5
2011-10-09 10:25:11:600,2.6987,-0.1036,-0.798,50,0,24.5
2011-10-09 10:25:11:610,3.0316,-0.37,-0.8655,50,0,24.5
2011-10-09 10:25:11:620,3.558,-0.6172,-0.7385,50,0,24.5
2011-10-09 10:25:11:630,4.1619,-0.984,-0.7147,50,0,24.5
2011-10-09 10:25:11:640,4.3283,-1.5362,-0.5004,53,0,24.5
2011-10-09 10:25:11:650,4.2393,-1.9224,-0.0877,53,0,24.5
2011-10-09 10:25:11:660,4.1851,-1.8761,0.1106,53,0,24.5
2011-10-09 10:25:11:670,3.8832,-1.8104,0.1145,53,0,24.5
2011-10-09 10:25:11:680,2.9774,-1.8259,-0.0004,53,0,24.5
2011-10-09 10:25:11:690,2.2807,-1.7255,-0.0599,56,0,24.5
2011-10-09 10:25:11:700,1.9362,-1.4706,0.0987,56,0,24.5
2011-10-09 10:25:11:710,1.5685,-1.2157,0.2693,56,0,24.5
2011-10-09 10:25:11:720,1.2124,-1.0613,0.3407,58,0,24.5
2011-10-09 10:25:11:730,0.9298,-1.0033,0.3368,58,0,24.5
2011-10-09 10:25:11:740,0.6318,-0.9338,0.3169,58,0,24.5
2011-10-09 10:25:11:750,0.4227,-0.8914,0.3526,61,0,24.5
2011-10-09 10:25:11:760,0.1402,-0.8643,0.3764,61,0,24.5
2011-10-09 10:25:11:770,-0.2507,-0.8566,0.432,64,0,24.5
2011-10-09 10:25:11:780,-0.7074,-0.7987,0.4955,64,0,24.5
2011-10-09 10:25:11:790,-1.0016,-0.7408,0.5629,64,0,24.5
2011-10-09 10:25:11:800,-1.2222,-0.7369,0.6741,61,0,24.5
2011-10-09 10:25:11:810,-1.3616,-0.7485,0.801,61,0,24.5
2011-10-09 10:25:11:820,-1.4196,-0.7485,0.8248,58,0,24.5
2011-10-09 10:25:11:830,-1.4157,-0.7215,0.8407,58,0,24.5
2011-10-09 10:25:11:840,-1.3345,-0.7099,0.809,56,0,24.5
2011-10-09 10:25:11:850,-1.1564,-0.6751,0.7018,56,0,24.5
2011-10-09 10:25:11:860,-1.0674,-0.6017,0.6026,53,0,24.5
2011-10-09 10:25:11:870,-0.9164,-0.5554,0.4241,53,0,24.5
2011-10-09 10:25:11:880,-0.7306,-0.621,0.2614,53,0,24.5
2011-10-09 10:25:11:890,-0.661,-0.6597,0.178,50,0,24.5
2011-10-09 10:25:11:900,-0.6261,-0.6558,0.2058,50,0,24.5
2011-10-09 10:25:11:910,-0.5139,-0.6828,0.2257,50,0,24.5
2011-10-09 10:25:11:920,-0.3552,-0.7832,0.2653,50,0,24.5
2011-10-09 10:25:11:930,-0.2352,-0.845,0.3725,50,0,24.5
2011-10-09 10:25:11:940,-0.1423,-0.8991,0.4241,50,0,24.5
2011-10-09 10:25:11:950,-0.0184,-1.0111,0.4003,50,0,24.5
2011-10-09 10:25:11:960,0.206,-1.1501,0.3209,50,0,24.5
2011-10-09 10:25:11:970,0.7014,-1.3895,0.2217,50,0,24.5
2011-10-09 10:25:11:980,1.5762,-1.8181,-0.1592,53,0,24.5
2011-10-09 10:25:11:990,2.571,-2.4476,-0.7226,53,0,24.5
2011-10-09 10:25:12:000,2.9929,-3.2894,-1.2424,53,0,24.5
2011-10-09 10:25:12:010,3.0819,-4.1004,-1.5639,53,0,24.5
2011-10-09 10:25:12:020,3.4884,-4.1892,-1.675,50,0,24.5
2011-10-09 10:25:12:030,3.8909,-3.6717,-1.544,50,0,24.5
2011-10-09 10:25:12:040,3.8212,-3.2856,-1.2821,48,0,24.5
2011-10-09 10:25:12:050,3.3606,-2.6677,-0.9329,45,0,24.5
2011-10-09 10:25:12:060,2.8574,-1.9456,-0.6948,45,0,24.5
2011-10-09 10:25:12:070,2.3852,-1.2775,-0.5917,42,0,24.5
2011-10-09 10:25:12:080,2.0059,-0.7215,-0.4845,42,0,24.5
2011-10-09 10:25:12:090,1.7311,-0.1499,-0.4052,42,0,24.5
2011-10-09 10:25:12:100,1.4369,0.2477,-0.2464,42,0,24.5
2011-10-09 10:25:12:110,1.2124,0.4949,-0.1552,42,0,24.5
2011-10-09 10:25:12:120,1.1195,0.6686,-0.1314,42,0,24.5
2011-10-09 10:25:12:130,0.953,0.8308,-0.2187,45,0,24.5
2011-10-09 10:25:12:140,0.8292,0.9891,-0.2742,45,0,24.5
2011-10-09 10:25:12:150,0.7208,1.1127,-0.3536,45,0,24.5
2011-10-09 10:25:12:160,0.5737,1.1706,-0.4806,42,0,24.5
2011-10-09 10:25:12:170,0.3724,1.1938,-0.5202,42,0,24.5
2011-10-09 10:25:12:180,0.2331,1.2054,-0.5322,42,0,24.5
2011-10-09 10:25:12:190,0.1789,1.217,-0.4806,42,0,24.5
2011-10-09 10:25:12:200,0.206,1.2517,-0.4925,42,0,24.5
2011-10-09 10:25:12:210,0.2524,1.2865,-0.4568,42,0,24.5
2011-10-09 10:25:12:220,0.2292,1.2556,-0.4964,42,0,24.5
2011-10-09 10:25:12:230,0.2176,1.2131,-0.5282,42,0,24.5
2011-10-09 10:25:12:240,0.2137,1.1359,-0.5639,42,0,24.5
2011-10-09 10:25:12:250,0.2099,1.0741,-0.6909,42,0,24.5
2011-10-09 10:25:12:260,0.2989,0.8385,-0.7345,42,0,24.5
2011-10-09 10:25:12:270,0.4498,0.6455,-0.798,42,0,24.5
2011-10-09 10:25:12:280,0.5853,0.4833,-0.798,42,0,24.5
2011-10-09 10:25:12:290,0.6782,0.4138,-0.7147,42,0,24.5
2011-10-09 10:25:12:300,0.833,0.4022,-0.6036,42,0,24.5
2011-10-09 10:25:12:310,1.0537,0.3636,-0.3218,42,0,24.5
2011-10-09 10:25:12:320,1.6343,0.3249,0.0034,42,0,24.5
2011-10-09 10:25:12:330,2.4742,0.3867,0.3487,42,0,24.5
2011-10-09 10:25:12:340,3.3297,0.267,0.4082,42,0,24.5
2011-10-09 10:25:12:350,3.7129,-0.0688,0.3606,42,0,24.5
2011-10-09 10:25:12:360,4.1851,-0.4898,0.1979,45,0,24.5
2011-10-09 10:25:12:370,4.607,-0.9223,-0.2822,48,0,24.5
2011-10-09 10:25:12:380,4.6418,-1.4629,-0.5044,48,0,24.5
2011-10-09 10:25:12:390,4.6186,-1.9494,-0.4568,50,0,24.5
2011-10-09 10:25:12:400,4.4251,-2.2313,-0.3853,50,0,24.5
2011-10-09 10:25:12:410,3.9567,-2.2777,-0.2266,53,0,24.5
2011-10-09 10:25:12:420,3.1748,-2.1194,0.0312,53,0,24.5
2011-10-09 10:25:12:430,2.4394,-1.8915,0.2138,53,0,24.5
2011-10-09 10:25:12:440,2.0059,-1.6444,0.2376,56,0,24.5
2011-10-09 10:25:12:450,1.704,-1.486,0.2971,58,0,24.5
2011-10-09 10:25:12:460,1.313,-1.4358,0.2772,61,0,24.5
2011-10-09 10:25:12:470,0.8834,-1.3702,0.3407,61,0,24.5
2011-10-09 10:25:12:480,0.3724,-1.3007,0.3606,64,0,24.5
2011-10-09 10:25:12:490,-0.2894,-1.0922,0.428,66,0,24.5
2011-10-09 10:25:12:500,-1.0867,-0.5979,1.178,61,0,24.5
2011-10-09 10:25:12:510,-1.1758,-0.6635,1.2574,58,0,24.5
2011-10-09 10:25:12:520,-1.2919,-0.679,1.2058,58,0,24.5
2011-10-09 10:25:12:530,-1.3693,-0.594,1.0986,58,0,24.5
2011-10-09 10:25:12:540,-1.377,-0.5631,0.9558,56,0,24.5
2011-10-09 10:25:12:550,-1.3151,-0.567,0.801,56,0,24.5
2011-10-09 10:25:12:560,-1.079,-0.5013,0.6383,53,0,24.5
2011-10-09 10:25:12:570,-0.7577,-0.5206,0.4995,53,0,24.5
2011-10-09 10:25:12:580,-0.479,-0.6172,0.4717,50,0,24.5
2011-10-09 10:25:12:590,-0.3823,-0.6442,0.4836,50,0,24.5
2011-10-09 10:25:12:600,-0.3784,-0.6481,0.5391,50,0,24.5
2011-10-09 10:25:12:610,-0.3087,-0.6674,0.5669,48,0,24.5
2011-10-09 10:25:12:620,-0.1694,-0.7292,0.4955,48,0,24.5
2011-10-09 10:25:12:630,-0.1384,-0.8489,0.4717,48,0,24.5
2011-10-09 10:25:12:640,-0.1655,-1.0651,0.4122,48,0,24.5
2011-10-09 10:25:12:650,0.0125,-1.2891,0.1503,48,0,24.5
2011-10-09 10:25:12:660,0.3531,-1.71,0.0828,48,0,24.5
2011-10-09 10:25:12:670,1.3866,-2.158,-0.2068,48,0,24.5
2011-10-09 10:25:12:680,2.6329,-2.7372,-0.8179,48,0,24.5
2011-10-09 10:25:12:690,3.1245,-3.7914,-1.2385,48,0,24.5
2011-10-09 10:25:12:700,3.3219,-4.7066,-1.5004,50,0,24.5
2011-10-09 10:25:12:710,3.6161,-4.6024,-1.4488,48,0,24.5
2011-10-09 10:25:12:720,3.9877,-3.9034,-1.2107,45,0,24.5
2011-10-09 10:25:12:730,3.949,-3.3358,-1.044,45,0,24.5
2011-10-09 10:25:12:740,3.4497,-2.5827,-0.8377,42,0,24.5
2011-10-09 10:25:12:750,2.9736,-1.7255,-0.7187,42,0,24.5
2011-10-09 10:25:12:760,2.5245,-1.069,-0.6314,42,0,24.5
2011-10-09 10:25:12:770,2.1452,-0.4666,-0.5083,40,0,24.5
2011-10-09 10:25:12:780,1.8317,-0.0418,-0.3734,40,0,24.5
2011-10-09 10:25:12:790,1.5414,0.24,-0.2584,42,0,24.5
2011-10-09 10:25:12:800,1.2898,0.4871,-0.1869,42,0,24.5
2011-10-09 10:25:12:810,1.1388,0.7536,-0.302,42,0,24.5
2011-10-09 10:25:12:820,0.9414,0.9196,-0.4171,42,0,24.5
2011-10-09 10:25:12:830,0.7827,1.0316,-0.5242,42,0,24.5
2011-10-09 10:25:12:840,0.6202,1.0664,-0.7067,45,0,24.5
2011-10-09 10:25:12:850,0.5234,1.0471,-0.7742,45,0,24.5
2011-10-09 10:25:12:860,0.4692,1.0625,-0.7464,45,0,24.5
2011-10-09 10:25:12:870,0.3608,1.0973,-0.7623,45,0,24.5
2011-10-09 10:25:12:880,0.3221,1.1706,-0.6234,45,0,24.5
2011-10-09 10:25:12:890,0.2718,1.2479,-0.5917,42,0,24.5
2011-10-09 10:25:12:900,0.2679,1.3251,-0.4845,45,0,24.5
2011-10-09 10:25:12:910,0.2795,1.329,-0.5163,45,0,24.5
2011-10-09 10:25:12:920,0.2989,1.2594,-0.552,45,0,24.5
2011-10-09 10:25:12:930,0.2447,1.2092,-0.6591,42,0,24.5
2011-10-09 10:25:12:940,0.2176,1.02,-0.6948,42,0,24.5
2011-10-09 10:25:12:950,0.3647,0.8231,-0.7504,42,0,24.5
2011-10-09 10:25:12:960,0.6589,0.6686,-0.7385,40,0,24.5
2011-10-09 10:25:12:970,0.8795,0.5064,-0.6869,40,0,24.5
2011-10-09 10:25:12:980,0.9337,0.4099,-0.5996,42,0,24.5
2011-10-09 10:25:12:990,0.9879,0.3327,-0.4409,42,0,24.5
2011-10-09 10:25:13:000,1.1582,0.2632,-0.1155,42,0,24.5
2011-10-09 10:25:13:010,1.6923,0.2323,0.2495,42,0,24.5
2011-10-09 10:25:13:020,2.3504,0.2979,0.5431,42,0,24.5
2011-10-09 10:25:13:030,3.0045,0.24,0.7415,40,0,24.5
2011-10-09 10:25:13:040,3.4574,0.0855,0.7574,42,0,24.5
2011-10-09 10:25:13:050,3.7903,-0.3392,0.5193,45,0,24.5
2011-10-09 10:25:13:060,4.2161,-0.8605,0.0114,45,0,24.5
2011-10-09 10:25:13:070,4.4251,-1.3934,-0.2822,48,0,24.5
2011-10-09 10:25:13:080,4.2935,-1.7486,-0.2147,48,0,24.5
2011-10-09 10:25:13:090,4.2935,-1.8181,-0.0838,50,0,24.5
2011-10-09 10:25:13:100,3.9761,-1.7177,0.2098,50,0,24.5
2011-10-09 10:25:13:110,3.1864,-1.7641,0.4399,53,0,24.5
2011-10-09 10:25:13:120,2.4278,-1.8181,0.5233,53,0,24.5
2011-10-09 10:25:13:130,1.7465,-1.7371,0.4082,53,0,24.5
2011-10-09 10:25:13:140,1.2588,-1.6714,0.2693,56,0,24.5
2011-10-09 10:25:13:150,0.8795,-1.5556,0.1265,58,0,24.5
2011-10-09 10:25:13:160,0.5621,-1.3934,0.0788,58,0,24.5
2011-10-09 10:25:13:170,0.2679,-1.2273,0.0431,61,0,24.5
2011-10-09 10:25:13:180,-0.0765,-1.0381,0.178,64,0,24.5
2011-10-09 10:25:13:190,-0.3242,-0.8605,0.2891,64,0,24.5
2011-10-09 10:25:13:200,-0.4984,-0.6481,0.4677,61,0,24.5
2011-10-09 10:25:13:210,-0.5487,-0.5168,0.7812,58,0,24.5
2011-10-09 10:25:13:220,-0.6803,-0.4666,1.0272,61,0,24.5
2011-10-09 10:25:13:230,-0.7384,-0.567,1.1582,58,0,24.5
2011-10-09 10:25:13:240,-1.0403,-0.6867,1.1621,58,0,24.5
2011-10-09 10:25:13:250,-1.4854,-0.733,1.1185,58,0,24.5
2011-10-09 10:25:13:260,-1.5744,-0.6751,1.0193,56,0,24.5
2011-10-09 10:25:13:270,-1.3886,-0.6172,0.8685,56,0,24.5
2011-10-09 10:25:13:280,-1.1177,-0.5554,0.6939,53,0,24.5
2011-10-09 10:25:13:290,-0.8313,-0.5593,0.5868,53,0,24.5
2011-10-09 10:25:13:300,-0.5332,-0.5747,0.4558,50,0,24.5
2011-10-09 10:25:13:310,-0.4481,-0.6674,0.2217,50,0,24.5
2011-10-09 10:25:13:320,-0.4752,-0.6519,0.2455,48,0,24.5
2011-10-09 10:25:13:330,-0.4171,-0.6404,0.2455,48,0,24.5
2011-10-09 10:25:13:340,-0.3436,-0.6635,0.2971,48,0,24.5
2011-10-09 10:25:13:350,-0.2584,-0.7408,0.3368,48,0,24.5
2011-10-09 10:25:13:360,-0.1887,-0.8296,0.3844,45,0,24.5
2011-10-09 10:25:13:370,-0.1036,-0.9377,0.4439,45,0,24.5
2011-10-09 10:25:13:380,-0.0029,-1.096,0.4439,45,0,24.5
2011-10-09 10:25:13:390,0.1982,-1.2582,0.2614,45,0,24.5
2011-10-09 10:25:13:400,0.5427,-1.4822,0.2336,45,0,24.5
2011-10-09 10:25:13:410,1.3827,-1.9108,-0.0401,45,0,24.5
2011-10-09 10:25:13:420,2.5749,-2.6716,-0.5837,45,0,24.5
2011-10-09 10:25:13:430,3.0548,-3.7451,-0.8694,45,0,24.5
2011-10-09 10:25:13:440,3.0935,-4.668,-1.302,48,0,24.5
2011-10-09 10:25:13:450,3.5,-4.7105,-1.8416,48,0,24.5
2011-10-09 10:25:13:460,3.5851,-4.278,-2.0995,48,0,24.5
2011-10-09 10:25:13:470,3.3645,-3.8416,-1.7345,45,0,24.5
2011-10-09 10:25:13:480,3.0316,-3.1658,-1.2464,45,0,24.5
2011-10-09 10:25:13:490,2.5904,-2.3086,-0.802,42,0,24.5
2011-10-09 10:25:13:500,2.3,-1.5517,-0.5679,42,0,24.5
2011-10-09 10:25:13:510,1.9904,-0.8798,-0.5004,42,0,24.5
2011-10-09 10:25:13:520,1.704,-0.3623,-0.4766,40,0,24.5
2011-10-09 10:25:13:530,1.3866,0.0237,-0.3972,40,0,24.5
2011-10-09 10:25:13:540,1.1388,0.294,-0.3417,40,0,24.5
2011-10-09 10:25:13:550,0.9569,0.4524,-0.3536,40,0,24.5
2011-10-09 10:25:13:560,0.8292,0.5914,-0.3734,40,0,24.5
2011-10-09 10:25:13:570,0.7285,0.7536,-0.5123,40,0,24.5
2011-10-09 10:25:13:580,0.6356,0.9158,-0.5996,37,0,24.5
2011-10-09 10:25:13:590,0.5466,1.0084,-0.6909,37,0,24.5
2011-10-09 10:25:13:600,0.3337,1.1127,-0.7702,37,0,24.5
2011-10-09 10:25:13:610,0.2331,1.1861,-0.7226,37,0,24.5
2011-10-09 10:25:13:620,0.264,1.244,-0.7345,40,0,24.5
2011-10-09 10:25:13:630,0.2718,1.2401,-0.7187,40,0,24.5
2011-10-09 10:25:13:640,0.237,1.2749,-0.6829,40,0,24.5
2011-10-09 10:25:13:650,0.2486,1.271,-0.6631,40,0,24.5
2011-10-09 10:25:13:660,0.2602,1.3521,-0.675,40,0,24.5
2011-10-09 10:25:13:670,0.264,1.2556,-0.7583,40,0,24.5
2011-10-09 10:25:13:680,0.2408,1.1127,-0.7742,40,0,24.5
2011-10-09 10:25:13:690,0.2292,0.9235,-0.8179,40,0,24.5
2011-10-09 10:25:13:700,0.295,0.7265,-0.8615,40,0,24.5
2011-10-09 10:25:13:710,0.4576,0.5605,-0.802,42,0,24.5
2011-10-09 10:25:13:720,0.655,0.3983,-0.7861,42,0,24.5
2011-10-09 10:25:13:730,0.895,0.2747,-0.6988,42,0,24.5
2011-10-09 10:25:13:740,1.1698,0.1859,-0.6234,42,0,24.5
2011-10-09 10:25:13:750,1.4833,0.0662,-0.5956,45,0,24.5
2011-10-09 10:25:13:760,2.242,-0.0688,-0.5758,45,0,24.5
2011-10-09 10:25:13:770,2.9581,-0.2774,-0.5044,45,0,24.5
2011-10-09 10:25:13:780,3.229,-0.5245,-0.4607,48,0,24.5
2011-10-09 10:25:13:790,3.4419,-0.7562,-0.5758,50,0,24.5
2011-10-09 10:25:13:800,3.7361,-0.9763,-0.7107,53,0,24.5
2011-10-09 10:25:13:810,4.4057,-1.2698,-1.052,56,0,24.5
2011-10-09 10:25:13:820,4.7386,-1.683,-1.3496,58,0,24.5
2011-10-09 10:25:13:830,4.4831,-2.3047,-1.6908,61,0,24.5
2011-10-09 10:25:13:840,3.7129,-2.521,-1.6789,61,0,24.5
2011-10-09 10:25:13:850,3.2755,-2.4167,-1.4012,61,0,24.5
2011-10-09 10:25:13:860,2.6871,-2.0846,-0.671,61,0,24.5
2011-10-09 10:25:13:870,2.3658,-1.8761,-0.2306,64,0,24.5
2011-10-09 10:25:13:880,2.0523,-1.6753,-0.0361,64,0,24.5
2011-10-09 10:25:13:890,1.6111,-1.6482,0.055,64,0,24.5
2011-10-09 10:25:13:900,1.1079,-1.7062,0.1265,64,0,24.5
2011-10-09 10:25:13:910,0.5156,-1.6984,0.2058,66,0,24.5
2011-10-09 10:25:13:920,-0.0765,-1.6482,0.2693,64,0,24.5
2011-10-09 10:25:13:930,-0.4868,-1.3123,0.559,66,0,24.5
2011-10-09 10:25:13:940,-0.5332,-1.0651,0.7653,66,0,24.5
2011-10-09 10:25:13:950,-0.5371,-0.984,1.0709,64,0,24.5
2011-10-09 10:25:13:960,-0.4906,-0.845,1.305,64,0,24.5
2011-10-09 10:25:13:970,-0.6803,-0.8605,1.4558,64,0,24.5
2011-10-09 10:25:13:980,-1.1216,-0.9261,1.4875,61,0,24.5
2011-10-09 10:25:13:990,-1.4312,-0.8682,1.424,61,0,24.5
2011-10-09 10:25:14:000,-1.4157,-0.7601,1.2931,58,0,24.5
2011-10-09 10:25:14:010,-1.2996,-0.7253,1.0709,58,0,24.5
2011-10-09 10:25:14:020,-1.1912,-0.7562,0.8526,56,0,24.5
2011-10-09 10:25:14:030,-1.0171,-0.7987,0.6502,53,0,24.5
2011-10-09 10:25:14:040,-0.7538,-0.8412,0.5114,53,0,24.5
2011-10-09 10:25:14:050,-0.5023,-0.8682,0.4598,50,0,24.5
2011-10-09 10:25:14:060,-0.3319,-0.7832,0.4003,48,0,24.5
2011-10-09 10:25:14:070,-0.2352,-0.7369,0.4399,48,0,24.5
2011-10-09 10:25:14:080,-0.239,-0.7099,0.436,45,0,24.5
2011-10-09 10:25:14:090,-0.2661,-0.7215,0.5034,45,0,24.5
2011-10-09 10:25:14:100,-0.2352,-0.7446,0.5233,45,0,24.5
2011-10-09 10:25:14:110,-0.1539,-0.8257,0.5074,45,0,24.5
2011-10-09 10:25:14:120,0.0202,-0.9995,0.3923,45,0,24.5
2011-10-09 10:25:14:130,0.2331,-1.208,0.3407,45,0,24.5
2011-10-09 10:25:14:140,0.9027,-1.5054,0.1622,45,0,24.5
2011-10-09 10:25:14:150,1.9749,-2.0074,-0.3774,45,0,24.5
2011-10-09 10:25:14:160,2.7568,-2.965,-1.0718,45,0,24.5
2011-10-09 10:25:14:170,3.0974,-4.0038,-1.548,50,0,24.5
2011-10-09 10:25:14:180,3.3297,-4.556,-1.7742,50,0,24.5
2011-10-09 10:25:14:190,3.7787,-4.3668,-1.7861,48,0,24.5
2011-10-09 10:25:14:200,4.1193,-3.6408,-1.5162,48,0,24.5
2011-10-09 10:25:14:210,3.8212,-3.0654,-1.1988,45,0,24.5
2011-10-09 10:25:14:220,3.2329,-2.4051,-0.9528,45,0,24.5
2011-10-09 10:25:14:230,2.8845,-1.6637,-0.8694,42,0,24.5
2011-10-09 10:25:14:240,2.451,-0.984,-0.8655,42,0,24.5
2011-10-09 10:25:14:250,2.0175,-0.4859,-0.8258,42,0,24.5
2011-10-09 10:25:14:260,1.5956,-0.0766,-0.7187,42,0,24.5
2011-10-09 10:25:14:270,1.2666,0.1782,-0.5679,42,0,24.5
2011-10-09 10:25:14:280,1.0885,0.3481,-0.4925,42,0,24.5
2011-10-09 10:25:14:290,0.9259,0.5335,-0.4885,42,0,24.5
2011-10-09 10:25:14:300,0.775,0.6918,-0.556,42,0,24.5
2011-10-09 10:25:14:310,0.6163,0.827,-0.5917,42,0,24.5
2011-10-09 10:25:14:320,0.5234,0.8656,-0.6591,42,0,24.5
2011-10-09 10:25:14:330,0.4537,0.8849,-0.7028,42,0,24.5
2011-10-09 10:25:14:340,0.3415,0.966,-0.7187,42,0,24.5
2011-10-09 10:25:14:350,0.1982,1.0702,-0.6671,42,0,24.5
2011-10-09 10:25:14:360,0.1286,1.1706,-0.6234,42,0,24.5
2011-10-09 10:25:14:370,0.1595,1.2517,-0.5718,42,0,24.5
2011-10-09 10:25:14:380,0.2176,1.2594,-0.552,42,0,24.5
2011-10-09 10:25:14:390,0.2176,1.2054,-0.5441,45,0,24.5
2011-10-09 10:25:14:400,0.2099,1.1359,-0.5322,45,0,24.5
2011-10-09 10:25:14:410,0.2176,1.0509,-0.5917,45,0,24.5
2011-10-09 10:25:14:420,0.1828,0.9737,-0.6155,45,0,24.5
2011-10-09 10:25:14:430,0.1557,0.8694,-0.6433,48,0,24.5
2011-10-09 10:25:14:440,0.1905,0.7034,-0.6909,48,0,24.5
2011-10-09 10:25:14:450,0.2408,0.5412,-0.679,48,0,24.5
2011-10-09 10:25:14:460,0.3337,0.4215,-0.6591,48,0,24.5
2011-10-09 10:25:14:470,0.4924,0.2516,-0.6115,48,0,24.5
2011-10-09 10:25:14:480,0.624,0.1936,-0.552,48,0,24.5
2011-10-09 10:25:14:490,0.8214,0.128,-0.4766,50,0,24.5
2011-10-09 10:25:14:500,1.1504,0.0739,-0.3853,50,0,24.5
2011-10-09 10:25:14:510,1.7156,0.1048,-0.4369,53,0,24.5
2011-10-09 10:25:14:520,2.4162,0.0044,-0.5202,53,0,24.5
2011-10-09 10:25:14:530,3.1748,-0.2542,-0.929,53,0,24.5
2011-10-09 10:25:14:540,3.9722,-0.8296,-1.3535,53,0,24.5
2011-10-09 10:25:14:550,4.2199,-1.4474,-1.5639,56,0,24.5
2011-10-09 10:25:14:560,4.1464,-2.1464,-1.4924,56,0,24.5
2011-10-09 10:25:14:570,4.0961,-2.5055,-1.3416,58,0,24.5
2011-10-09 10:25:14:580,3.8599,-2.4708,-0.9885,58,0,24.5
2011-10-09 10:25:14:590,3.5116,-2.3047,-0.6671,58,0,24.5
2011-10-09 10:25:14:600,2.9852,-2.1734,-0.3695,61,0,24.5
2011-10-09 10:25:14:610,2.3929,-1.9533,-0.2187,61,0,24.5
2011-10-09 10:25:14:620,1.8356,-1.7293,-0.1195,61,0,24.5
2011-10-09 10:25:14:630,1.3982,-1.544,-0.0282,61,0,24.5
2011-10-09 10:25:14:640,0.9337,-1.3972,0.0233,61,0,24.5
2011-10-09 10:25:14:650,0.5389,-1.3007,0.0312,61,0,24.5
2011-10-09 10:25:14:660,0.1363,-1.1269,0.0868,61,0,24.5
2011-10-09 10:25:14:670,-0.2081,-0.9802,0.1582,61,0,24.5
2011-10-09 10:25:14:680,-0.4635,-0.7408,0.2534,61,0,24.5
2011-10-09 10:25:14:690,-0.6184,-0.5477,0.3764,61,0,24.5
2011-10-09 10:25:14:700,-0.7229,-0.3932,0.4875,61,0,24.5
2011-10-09 10:25:14:710,-0.7345,-0.3469,0.682,61,0,24.5
2011-10-09 10:25:14:720,-0.7229,-0.3276,0.8328,58,0,24.5
2011-10-09 10:25:14:730,-0.7461,-0.3469,0.9677,56,0,24.5
2011-10-09 10:25:14:740,-0.8738,-0.3623,0.9677,56,0,24.5
2011-10-09 10:25:14:750,-1.2416,-0.3392,0.9478,56,0,24.5
2011-10-09 10:25:14:760,-1.408,-0.2735,0.8725,53,0,24.5
2011-10-09 10:25:14:770,-1.2609,-0.2272,0.7455,53,0,24.5
2011-10-09 10:25:14:780,-0.9319,-0.2503,0.5987,50,0,24.5
2011-10-09 10:25:14:790,-0.6339,-0.3237,0.5074,50,0,24.5
2011-10-09 10:25:14:800,-0.4403,-0.3855,0.3963,50,0,24.5
2011-10-09 10:25:14:810,-0.3281,-0.4241,0.3685,48,0,24.5
2011-10-09 10:25:14:820,-0.2816,-0.4589,0.3526,48,0,24.5
2011-10-09 10:25:14:830,-0.2584,-0.5091,0.3209,48,0,24.5
2011-10-09 10:25:14:840,-0.2274,-0.5515,0.305,48,0,24.5
2011-10-09 10:25:14:850,-0.1616,-0.6326,0.2415,48,0,24.5
2011-10-09 10:25:14:860,-0.0803,-0.733,0.2098,48,0,24.5
2011-10-09 10:25:14:870,0.1053,-0.8875,0.1503,48,0,24.5
2011-10-09 10:25:14:880,0.6085,-1.154,0.0947,48,0,24.5
2011-10-09 10:25:14:890,1.4872,-1.4899,-0.179,48,0,24.5
2011-10-09 10:25:14:900,2.6174,-2.212,-0.8972,50,0,24.5
2011-10-09 10:25:14:910,2.6949,-3.4207,-1.548,50,0,24.5
2011-10-09 10:25:14:920,2.4355,-4.5946,-2.0083,48,0,24.5
2011-10-09 10:25:14:930,2.7452,-4.668,-1.8099,48,0,24.5
2011-10-09 10:25:14:940,3.2832,-3.8146,-1.3813,45,0,24.5
2011-10-09 10:25:14:950,3.5271,-3.1813,-1.0797,45,0,24.5
2011-10-09 10:25:14:960,3.0897,-2.5596,-0.8853,42,0,24.5
2011-10-09 10:25:14:970,2.5981,-1.7641,-0.7663,40,0,24.5
2011-10-09 10:25:14:980,2.2071,-1.0767,-0.7345,40,0,24.5
2011-10-09 10:25:14:990,1.9943,-0.5554,-0.6512,40,0,24.5
2011-10-09 10:25:15:000,1.7388,-0.1383,-0.5123,40,0,24.5
2011-10-09 10:25:15:010,1.4717,0.1048,-0.3972,40,0,24.5
2011-10-09 10:25:15:020,1.2162,0.2516,-0.3099,40,0,24.5
2011-10-09 10:25:15:030,1.0421,0.4369,-0.3536,40,0,24.5
2011-10-09 10:25:15:040,0.9337,0.5991,-0.4052,40,0,24.5
2011-10-09 10:25:15:050,0.7518,0.6879,-0.4409,40,0,24.5
2011-10-09 10:25:15:060,0.5621,0.7265,-0.4845,42,0,24.5
2011-10-09 10:25:15:070,0.4305,0.7729,-0.5798,42,0,24.5
2011-10-09 10:25:15:080,0.2718,0.827,-0.5322,42,0,24.5
2011-10-09 10:25:15:090,0.1866,0.9389,-0.4885,42,0,24.5
2011-10-09 10:25:15:100,0.1402,1.02,-0.421,42,0,24.5
2011-10-09 10:25:15:110,0.1286,1.1088,-0.3972,45,0,24.5
2011-10-09 10:25:15:120,0.1712,1.1436,-0.3933,45,0,24.5
2011-10-09 10:25:15:130,0.1789,1.2247,-0.4369,45,0,24.5
2011-10-09 10:25:15:140,0.2408,1.2208,-0.4131,45,0,24.5
2011-10-09 10:25:15:150,0.3105,1.1436,-0.4607,45,0,24.5
2011-10-09 10:25:15:160,0.3299,1.0471,-0.5083,45,0,24.5
2011-10-09 10:25:15:170,0.326,0.9235,-0.5758,45,0,24.5
2011-10-09 10:25:15:180,0.2873,0.7497,-0.6393,45,0,24.5
2011-10-09 10:25:15:190,0.3299,0.5605,-0.6353,45,0,24.5
2011-10-09 10:25:15:200,0.384,0.4099,-0.6155,45,0,24.5
2011-10-09 10:25:15:210,0.4847,0.3056,-0.5758,45,0,24.5
2011-10-09 10:25:15:220,0.6085,0.267,-0.4131,45,0,24.5
2011-10-09 10:25:15:230,0.9182,0.2554,-0.2822,48,0,24.5
2011-10-09 10:25:15:240,1.3866,0.2516,-0.2068,48,0,24.5
2011-10-09 10:25:15:250,2.122,0.2323,-0.2742,50,0,24.5
2011-10-09 10:25:15:260,2.7568,0.0353,-0.425,50,0,24.5
2011-10-09 10:25:15:270,3.1981,-0.2619,-0.675,50,0,24.5
2011-10-09 10:25:15:280,3.5155,-0.6365,-0.9686,53,0,24.5
2011-10-09 10:25:15:290,3.8058,-1.0767,-1.1432,53,0,24.5
2011-10-09 10:25:15:300,4.0922,-1.5942,-1.2186,56,0,24.5
2011-10-09 10:25:15:310,4.2277,-1.9958,-1.048,56,0,24.5
2011-10-09 10:25:15:320,3.918,-1.9996,-0.6829,56,0,24.5
2011-10-09 10:25:15:330,3.3568,-1.9572,-0.3576,56,0,24.5
2011-10-09 10:25:15:340,2.7839,-1.8259,-0.1949,56,0,24.5
2011-10-09 10:25:15:350,2.2807,-1.6714,-0.1512,58,0,24.5
2011-10-09 10:25:15:360,1.793,-1.5633,-0.183,58,0,24.5
2011-10-09 10:25:15:370,1.344,-1.4165,-0.1036,58,0,24.5
2011-10-09 10:25:15:380,0.9724,-1.2659,-0.0719,58,0,24.5
2011-10-09 10:25:15:390,0.5698,-1.1501,0.1225,58,0,24.5
2011-10-09 10:25:15:400,0.2099,-1.0342,0.2018,58,0,24.5
2011-10-09 10:25:15:410,-0.1307,-0.8759,0.2574,58,0,24.5
2011-10-09 10:25:15:420,-0.3629,-0.791,0.3725,61,0,24.5
2011-10-09 10:25:15:430,-0.5564,-0.6481,0.5947,61,0,24.5
2011-10-09 10:25:15:440,-0.6029,-0.482,0.8288,61,0,24.5
2011-10-09 10:25:15:450,-0.6919,-0.3816,0.9439,61,0,24.5
2011-10-09 10:25:15:460,-0.9319,-0.3623,0.9677,58,0,24.5
2011-10-09 10:25:15:470,-1.1254,-0.3855,0.9836,58,0,24.5
2011-10-09 10:25:15:480,-1.2183,-0.3816,0.9121,58,0,24.5
2011-10-09 10:25:15:490,-1.2067,-0.3507,0.7653,58,0,24.5
2011-10-09 10:25:15:500,-0.4481,-0.5515,0.3963,53,0,24.5
2011-10-09 10:25:15:510,-0.3281,-0.567,0.4122,53,0,24.5
2011-10-09 10:25:15:520,-0.2584,-0.5824,0.3923,50,0,24.5
2011-10-09 10:25:15:530,-0.2468,-0.6172,0.3645,50,0,24.5
2011-10-09 10:25:15:540,-0.239,-0.6906,0.3249,50,0,24.5
2011-10-09 10:25:15:550,-0.1655,-0.7446,0.182,50,0,24.5
2011-10-09 10:25:15:560,-0.0687,-0.8334,0.055,50,0,24.5
2011-10-09 10:25:15:570,0.0628,-0.9763,0.0273,50,0,24.5
2011-10-09 10:25:15:580,0.566,-1.2119,0.063,50,0,24.5
2011-10-09 10:25:15:590,1.6807,-1.6444,-0.2504,53,0,24.5
2011-10-09 10:25:15:600,2.6291,-2.3935,-0.8258,53,0,24.5
2011-10-09 10:25:15:610,2.5942,-3.525,-1.5043,50,0,24.5
2011-10-09 10:25:15:620,2.331,-4.8649,-2.1194,50,0,24.5
2011-10-09 10:25:15:630,2.5516,-4.9383,-2.0519,48,0,24.5
2011-10-09 10:25:15:640,3.6045,-4.081,-1.6353,48,0,24.5
2011-10-09 10:25:15:650,3.6471,-3.3049,-1.3496,45,0,24.5
2011-10-09 10:25:15:660,3.14,-2.5325,-1.1909,45,0,24.5
2011-10-09 10:25:15:670,2.5981,-1.7293,-1.052,45,0,24.5
2011-10-09 10:25:15:680,2.1452,-1.0651,-0.9567,42,0,24.5
2011-10-09 10:25:15:690,1.7427,-0.4164,-0.8694,42,0,24.5
2011-10-09 10:25:15:700,1.4988,0.1434,-0.7821,42,0,24.5
2011-10-09 10:25:15:710,1.3285,0.5142,-0.6631,45,0,24.5
2011-10-09 10:25:15:720,1.1466,0.7343,-0.4885,45,0,24.5
2011-10-09 10:25:15:730,0.9917,0.8038,-0.5163,45,0,24.5
2011-10-09 10:25:15:740,0.7789,0.8308,-0.4766,45,0,24.5
2011-10-09 10:25:15:750,0.6434,0.8385,-0.5083,45,0,24.5
2011-10-09 10:25:15:760,0.4924,0.9042,-0.556,45,0,24.5
2011-10-09 10:25:15:770,0.384,0.9814,-0.6194,45,0,24.5
2011-10-09 10:25:15:780,0.3531,1.078,-0.552,45,0,24.5
2011-10-09 10:25:15:790,0.3144,1.1011,-0.5599,45,0,24.5
2011-10-09 10:25:15:800,0.2176,1.105,-0.5679,45,0,24.5
2011-10-09 10:25:15:810,0.1789,1.1552,-0.5282,45,0,24.5
2011-10-09 10:25:15:820,0.1789,1.1436,-0.5083,45,0,24.5
2011-10-09 10:25:15:830,0.1828,1.0818,-0.4845,45,0,24.5
2011-10-09 10:25:15:840,0.1905,1.0509,-0.5202,45,0,24.5
2011-10-09 10:25:15:850,0.2137,0.9428,-0.5599,48,0,24.5
2011-10-09 10:25:15:860,0.2447,0.8347,-0.5758,48,0,24.5
2011-10-09 10:25:15:870,0.2873,0.715,-0.5758,48,0,24.5
2011-10-09 10:25:15:880,0.3144,0.5837,-0.5599,48,0,24.5
2011-10-09 10:25:15:890,0.3453,0.4833,-0.552,48,0,24.5
2011-10-09 10:25:15:900,0.4731,0.3558,-0.4925,48,0,24.5
2011-10-09 10:25:15:910,0.6085,0.2747,-0.4409,48,0,24.5
2011-10-09 10:25:15:920,0.7789,0.2207,-0.3933,48,0,24.5
2011-10-09 10:25:15:930,1.104,0.1859,-0.421,48,0,24.5
2011-10-09 10:25:15:940,1.5762,0.0778,-0.4091,48,0,24.5
2011-10-09 10:25:15:950,2.1607,0.0006,-0.4369,50,0,24.5
2011-10-09 10:25:15:960,2.6871,-0.1152,-0.5877,50,0,24.5
2011-10-09 10:25:15:970,3.1168,-0.4164,-0.8258,53,0,24.5
2011-10-09 10:25:15:980,3.3645,-0.8141,-1.0163,53,0,24.5
2011-10-09 10:25:15:990,3.6625,-1.2544,-1.1948,53,0,24.5
2011-10-09 10:25:16:000,3.9606,-1.6482,-1.3496,53,0,24.5
2011-10-09 10:25:16:010,4.0148,-1.9224,-1.171,56,0,24.5
2011-10-09 10:25:16:020,3.7709,-2.0344,-0.8258,56,0,24.5
2011-10-09 10:25:16:030,3.2987,-1.9996,-0.3258,56,0,24.5
2011-10-09 10:25:16:040,2.691,-1.8413,-0.0401,56,0,24.5
2011-10-09 10:25:16:050,2.1723,-1.6521,-0.0163,58,0,24.5
2011-10-09 10:25:16:060,1.6498,-1.5054,-0.0282,58,0,24.5
2011-10-09 10:25:16:070,1.2433,-1.4243,-0.1353,58,0,24.5
2011-10-09 10:25:16:080,0.8447,-1.2312,-0.1592,58,0,24.5
2011-10-09 10:25:16:090,0.4769,-1.0806,-0.1274,58,0,24.5
2011-10-09 10:25:16:100,0.0821,-0.9493,-0.0361,61,0,24.5
2011-10-09 10:25:16:110,-0.1539,-0.8412,0.0709,61,0,24.5
2011-10-09 10:25:16:120,-0.301,-0.6906,0.1503,61,0,24.5
2011-10-09 10:25:16:130,-0.3823,-0.5091,0.3566,61,0,24.5
2011-10-09 10:25:16:140,-0.3977,-0.316,0.6621,61,0,24.5
2011-10-09 10:25:16:150,-0.421,-0.2349,1.0431,61,0,24.5
2011-10-09 10:25:16:160,-0.5487,-0.3546,1.2812,61,0,24.5
2011-10-09 10:25:16:170,-0.9822,-0.4164,1.3566,61,0,24.5
2011-10-09 10:25:16:180,-1.3461,-0.4009,1.3248,61,0,24.5
2011-10-09 10:25:16:190,-1.5125,-0.3314,1.1859,58,0,24.5
2011-10-09 10:25:16:200,-1.3267,-0.3005,0.924,58,0,24.5
2011-10-09 10:25:16:210,-1.0209,-0.3314,0.7494,58,0,24.5
2011-10-09 10:25:16:220,-0.6842,-0.4589,0.5471,56,0,24.5
2011-10-09 10:25:16:230,-0.4906,-0.5593,0.3566,56,0,24.5
2011-10-09 10:25:16:240,-0.3977,-0.5902,0.2653,56,0,24.5
2011-10-09 10:25:16:250,-0.3436,-0.594,0.2534,53,0,24.5
2011-10-09 10:25:16:260,-0.2932,-0.5786,0.2177,53,0,24.5
2011-10-09 10:25:16:270,-0.2468,-0.6404,0.2415,50,0,24.5
2011-10-09 10:25:16:280,-0.2584,-0.6597,0.309,50,0,24.5
2011-10-09 10:25:16:290,-0.2081,-0.6983,0.3804,50,0,24.5
2011-10-09 10:25:16:300,-0.0649,-0.8103,0.3526,50,0,24.5
2011-10-09 10:25:16:310,0.1518,-0.9647,0.3328,50,0,24.5
2011-10-09 10:25:16:320,0.9259,-1.3239,0.2971,50,0,24.5
2011-10-09 10:25:16:330,1.9981,-1.907,-0.3734,50,0,24.5
2011-10-09 10:25:16:340,2.9736,-2.8685,-1.2067,50,0,24.5
2011-10-09 10:25:16:350,2.9697,-4.1119,-1.7504,48,0,24.5
2011-10-09 10:25:16:360,2.7065,-4.8341,-2.1273,45,0,24.5
2011-10-09 10:25:16:370,2.9658,-4.2008,-1.8615,42,0,24.5
2011-10-09 10:25:16:380,3.3142,-3.4902,-1.2226,42,0,24.5
2011-10-09 10:25:16:390,3.4419,-3.0037,-0.8694,40,0,24.5
2011-10-09 10:25:16:400,3.0703,-2.1502,-0.6869,40,0,24.5
2011-10-09 10:25:16:410,2.6832,-1.4127,-0.679,40,0,24.5
2011-10-09 10:25:16:420,2.3,-0.7137,-0.6671,40,0,24.5
2011-10-09 10:25:16:430,1.9014,-0.119,-0.5401,40,0,24.5
2011-10-09 10:25:16:440,1.5724,0.2902,-0.4091,40,0,24.5
2011-10-09 10:25:16:450,1.3904,0.5644,-0.3417,40,0,24.5
2011-10-09 10:25:16:460,1.2124,0.7613,-0.3655,40,0,24.5
2011-10-09 10:25:16:470,1.0227,0.9235,-0.3853,40,0,24.5
2011-10-09 10:25:16:480,0.9027,0.993,-0.5083,40,0,24.5
2011-10-09 10:25:16:490,0.7131,0.9196,-0.6274,40,0,24.5
2011-10-09 10:25:16:500,0.4808,0.8463,-0.675,40,0,24.5
2011-10-09 10:25:16:510,0.3531,0.9544,-0.6472,40,0,24.5
2011-10-09 10:25:16:520,0.2447,1.0741,-0.6155,42,0,24.5
2011-10-09 10:25:16:530,0.1866,1.1204,-0.5996,42,0,24.5
2011-10-09 10:25:16:540,0.1286,1.1243,-0.5361,42,0,24.5
2011-10-09 10:25:16:550,0.0899,1.0857,-0.5163,42,0,24.5
2011-10-09 10:25:16:560,0.1053,1.0162,-0.4766,45,0,24.5
2011-10-09 10:25:16:570,0.1092,0.9235,-0.5044,42,0,24.5
2011-10-09 10:25:16:580,0.1324,0.8308,-0.5322,45,0,24.5
2011-10-09 10:25:16:590,0.1982,0.715,-0.6155,45,0,24.5
2011-10-09 10:25:16:600,0.2331,0.5566,-0.6552,45,0,24.5
2011-10-09 10:25:16:610,0.264,0.4871,-0.6155,45,0,24.5
2011-10-09 10:25:16:620,0.3028,0.3365,-0.5917,45,0,24.5
2011-10-09 10:25:16:630,0.3569,0.2593,-0.5361,45,0,24.5
2011-10-09 10:25:16:640,0.446,0.1975,-0.4409,45,0,24.5
2011-10-09 10:25:16:650,0.6202,0.1589,-0.3655,45,0,24.5
2011-10-09 10:25:16:660,0.9182,0.1821,-0.2703,48,0,24.5
2011-10-09 10:25:16:670,1.3362,0.2245,-0.2861,48,0,24.5
2011-10-09 10:25:16:680,2.0097,0.1936,-0.4607,48,0,24.5
2011-10-09 10:25:16:690,2.7103,-0.0225,-0.7782,50,0,24.5
2011-10-09 10:25:16:700,3.2329,-0.4473,-1.1155,53,0,24.5
2011-10-09 10:25:16:710,3.6432,-0.9377,-1.4369,53,0,24.5
2011-10-09 10:25:16:720,3.767,-1.3856,-1.5916,56,0,24.5
2011-10-09 10:25:16:730,3.7825,-1.8143,-1.5321,56,0,24.5
2011-10-09 10:25:16:740,3.6819,-1.9533,-1.2107,58,0,24.5
2011-10-09 10:25:16:750,3.438,-1.9803,-0.802,58,0,24.5
2011-10-09 10:25:16:760,3.1245,-1.8683,-0.4528,58,0,24.5
2011-10-09 10:25:16:770,2.7723,-1.7293,-0.2861,58,0,24.5
2011-10-09 10:25:16:780,2.2613,-1.5633,-0.2306,58,0,24.5
2011-10-09 10:25:16:790,1.762,-1.3972,-0.2028,58,0,24.5
2011-10-09 10:25:16:800,1.2937,-1.3084,-0.1512,58,0,24.5
2011-10-09 10:25:16:810,0.8988,-1.2273,-0.1115,58,0,24.5
2011-10-09 10:25:16:820,0.566,-1.1037,-0.0282,58,0,24.5
2011-10-09 10:25:16:830,0.2137,-0.9995,0.0709,58,0,24.5
2011-10-09 10:25:16:840,-0.0765,-0.93,0.1423,58,0,24.5
2011-10-09 10:25:16:850,-0.3203,-0.8682,0.2217,58,0,24.5
2011-10-09 10:25:16:860,-0.5835,-0.8025,0.3883,56,0,24.5
2011-10-09 10:25:16:870,-0.7693,-0.6172,0.5193,56,0,24.5
2011-10-09 10:25:16:880,-0.8429,-0.4859,0.6502,56,0,24.5
2011-10-09 10:25:16:890,-0.8313,-0.4859,0.7296,56,0,24.5
2011-10-09 10:25:16:900,-0.9396,-0.4898,0.7852,56,0,24.5
2011-10-09 10:25:16:910,-1.048,-0.5013,0.7852,56,0,24.5
2011-10-09 10:25:16:920,-1.2029,-0.428,0.7217,53,0,24.5
2011-10-09 10:25:16:930,-1.2841,-0.4009,0.5828,53,0,24.5
2011-10-09 10:25:16:940,-1.2609,-0.4009,0.3804,53,0,24.5
2011-10-09 10:25:16:950,-1.1487,-0.4627,0.2455,50,0,24.5
2011-10-09 10:25:16:960,-0.959,-0.4666,0.2574,50,0,24.5
2011-10-09 10:25:16:970,-0.6919,-0.4782,0.2772,50,0,24.5
2011-10-09 10:25:16:980,-0.4713,-0.482,0.4241,50,0,24.5
2011-10-09 10:25:16:990,-0.2545,-0.54,0.4558,50,0,24.5
2011-10-09 10:25:17:000,-0.1461,-0.594,0.4518,50,0,24.5
2011-10-09 10:25:17:010,-0.1074,-0.6172,0.3447,50,0,24.5
2011-10-09 10:25:17:020,-0.0378,-0.679,0.1899,50,0,24.5
2011-10-09 10:25:17:030,0.0783,-0.7562,0.0788,50,0,24.5
2011-10-09 10:25:17:040,0.3028,-0.9145,-0.1433,50,0,24.5
2011-10-09 10:25:17:050,0.9414,-1.1964,-0.2584,50,0,24.5
2011-10-09 10:25:17:060,1.9556,-1.6367,-0.5877,50,0,24.5
2011-10-09 10:25:17:070,2.7645,-2.3395,-0.8734,50,0,24.5
2011-10-09 10:25:17:080,3.0471,-3.1504,-1.179,50,0,24.5
2011-10-09 10:25:17:090,2.7994,-3.9343,-1.6154,50,0,24.5
2011-10-09 10:25:17:100,2.9697,-3.9343,-1.8615,48,0,24.5
2011-10-09 10:25:17:110,3.349,-3.2971,-1.7702,48,0,24.5
2011-10-09 10:25:17:120,3.3142,-2.772,-1.4964,48,0,24.5
2011-10-09 10:25:17:130,2.9194,-2.212,-1.1393,45,0,24.5
2011-10-09 10:25:17:140,2.5052,-1.6367,-0.8456,45,0,24.5
2011-10-09 10:25:17:150,2.1917,-1.0381,-0.6591,42,0,24.5
2011-10-09 10:25:17:160,1.9052,-0.4473,-0.5679,42,0,24.5
2011-10-09 10:25:17:170,1.6923,0.0122,-0.3615,42,0,24.5
2011-10-09 10:25:17:180,1.5104,0.3443,-0.2822,42,0,24.5
2011-10-09 10:25:17:190,1.2317,0.5373,-0.2544,42,0,24.5
2011-10-09 10:25:17:200,1.0343,0.6339,-0.306,42,0,24.5
2011-10-09 10:25:17:210,0.8563,0.7304,-0.4369,42,0,24.5
2011-10-09 10:25:17:220,0.6937,0.769,-0.5004,42,0,24.5
2011-10-09 10:25:17:230,0.5544,0.7999,-0.5401,42,0,24.5
2011-10-09 10:25:17:240,0.446,0.8424,-0.5639,42,0,24.5
2011-10-09 10:25:17:250,0.3608,0.9428,-0.5599,42,0,24.5
2011-10-09 10:25:17:260,0.2834,1.02,-0.5956,42,0,24.5
2011-10-09 10:25:17:270,0.1828,1.0393,-0.548,42,0,24.5
2011-10-09 10:25:17:280,0.1092,1.0239,-0.4925,42,0,24.5
2011-10-09 10:25:17:290,0.0744,1.0355,-0.4449,45,0,24.5
2011-10-09 10:25:17:300,0.0589,1.0239,-0.4329,45,0,24.5
2011-10-09 10:25:17:310,0.0395,0.9969,-0.4329,45,0,24.5
2011-10-09 10:25:17:320,0.1441,0.8887,-0.4449,45,0,24.5
2011-10-09 10:25:17:330,0.2447,0.8154,-0.4687,45,0,24.5
2011-10-09 10:25:17:340,0.2602,0.715,-0.5163,45,0,24.5
2011-10-09 10:25:17:350,0.2486,0.5644,-0.5322,45,0,24.5
2011-10-09 10:25:17:360,0.2563,0.4755,-0.4568,45,0,24.5
2011-10-09 10:25:17:370,0.3105,0.352,-0.4647,48,0,24.5
2011-10-09 10:25:17:380,0.3724,0.3288,-0.3695,48,0,24.5
2011-10-09 10:25:17:390,0.5311,0.2825,-0.3258,48,0,24.5
2011-10-09 10:25:17:400,0.8485,0.2825,-0.3417,48,0,24.5
2011-10-09 10:25:17:410,1.5065,0.2477,-0.4607,50,0,24.5
2011-10-09 10:25:17:420,2.482,0.1589,-0.6909,50,0,24.5
2011-10-09 10:25:17:430,3.1787,-0.1229,-0.9329,50,0,24.5
2011-10-09 10:25:17:440,3.3916,-0.5631,-1.1631,53,0,24.5
2011-10-09 10:25:17:450,3.3606,-1.0806,-1.2147,53,0,24.5
2011-10-09 10:25:17:460,3.3103,-1.6096,-1.1274,53,0,24.5
2011-10-09 10:25:17:470,3.4303,-1.8181,-0.9369,53,0,24.5
2011-10-09 10:25:17:480,3.4729,-1.8066,-0.6909,53,0,24.5
2011-10-09 10:25:17:490,3.4109,-1.7795,-0.4528,53,0,24.5
2011-10-09 10:25:17:500,3.02,-1.7023,-0.2822,53,0,24.5
2011-10-09 10:25:17:510,2.4046,-1.5478,-0.2147,53,0,24.5
2011-10-09 10:25:17:520,1.9052,-1.3123,-0.1552,53,0,24.5
2011-10-09 10:25:17:530,1.5569,-1.1308,-0.1036,53,0,24.5
2011-10-09 10:25:17:540,1.1659,-1.0072,-0.0203,53,0,24.5
2011-10-09 10:25:17:550,0.7943,-0.8721,0.0431,56,0,24.5
2011-10-09 10:25:17:560,0.4382,-0.8103,0.0828,56,0,24.5
2011-10-09 10:25:17:570,0.055,-0.7485,0.1106,56,0,24.5
2011-10-09 10:25:17:580,-0.2507,-0.6828,0.1344,56,0,24.5
2011-10-09 10:25:17:590,-0.4713,-0.5477,0.3368,56,0,24.5
2011-10-09 10:25:17:600,-0.5603,-0.4704,0.3883,56,0,24.5
2011-10-09 10:25:17:610,-0.6648,-0.4898,0.4875,53,0,24.5
2011-10-09 10:25:17:620,-0.7461,-0.5052,0.5828,53,0,24.5
2011-10-09 10:25:17:630,-0.839,-0.5013,0.6542,53,0,24.5
2011-10-09 10:25:17:640,-0.9861,-0.4898,0.7018,50,0,24.5
2011-10-09 10:25:17:650,-1.0983,-0.4627,0.6502,50,0,24.5
2011-10-09 10:25:17:660,-1.1487,-0.3932,0.5907,50,0,24.5
2011-10-09 10:25:17:670,-1.0558,-0.3894,0.5114,48,0,24.5
2011-10-09 10:25:17:680,-0.8622,-0.4048,0.4598,48,0,24.5
2011-10-09 10:25:17:690,-0.6532,-0.428,0.3963,48,0,24.5
2011-10-09 10:25:17:700,-0.4829,-0.4473,0.3566,48,0,24.5
2011-10-09 10:25:17:710,-0.4365,-0.5013,0.3645,48,0,24.5
2011-10-09 10:25:17:720,-0.4558,-0.5593,0.3566,48,0,24.5
2011-10-09 10:25:17:730,-0.4248,-0.594,0.3725,48,0,24.5
2011-10-09 10:25:17:740,-0.3397,-0.6288,0.3963,48,0,24.5
2011-10-09 10:25:17:750,-0.2661,-0.706,0.4082,48,0,24.5
2011-10-09 10:25:17:760,-0.1616,-0.7755,0.3249,48,0,24.5
2011-10-09 10:25:17:770,-0.0184,-0.8836,0.2574,48,0,24.5
2011-10-09 10:25:17:780,0.2602,-1.0111,0.2534,48,0,24.5
2011-10-09 10:25:17:790,0.864,-1.2659,0.1542,48,0,24.5
2011-10-09 10:25:17:800,1.6962,-1.6984,-0.1115,48,0,24.5
2011-10-09 10:25:17:810,2.5013,-2.4785,-0.6552,48,0,24.5
2011-10-09 10:25:17:820,3.0123,-3.6215,-1.3377,45,0,24.5
2011-10-09 10:25:17:830,2.8303,-4.5792,-1.6551,45,0,24.5
2011-10-09 10:25:17:840,2.931,-4.4363,-1.5758,42,0,24.5
2011-10-09 10:25:17:850,3.3684,-3.7721,-1.1909,42,0,24.5
2011-10-09 10:25:17:860,3.3916,-3.0152,-0.7861,40,0,24.5
2011-10-09 10:25:17:870,3.0045,-2.3163,-0.5758,40,0,24.5
2011-10-09 10:25:17:880,2.6755,-1.6135,-0.5401,40,0,24.5
2011-10-09 10:25:17:890,2.2768,-0.9184,-0.5083,37,0,24.5
2011-10-09 10:25:17:900,1.9517,-0.3469,-0.4012,37,0,24.5
2011-10-09 10:25:17:910,1.642,0.0083,-0.302,37,0,24.5
2011-10-09 10:25:17:920,1.3053,0.2786,-0.179,37,0,24.5
2011-10-09 10:25:17:930,1.1001,0.464,-0.2187,40,0,24.5
2011-10-09 10:25:17:940,0.953,0.6107,-0.298,40,0,24.5
2011-10-09 10:25:17:950,0.7943,0.7574,-0.4171,40,0,24.5
2011-10-09 10:25:17:960,0.6318,0.7652,-0.5242,40,0,24.5
2011-10-09 10:25:17:970,0.4227,0.7806,-0.6393,40,0,24.5
2011-10-09 10:25:17:980,0.2563,0.8192,-0.6393,40,0,24.5
2011-10-09 10:25:17:990,0.1789,0.9351,-0.6075,42,0,24.5
2011-10-09 10:25:18:000,0.1441,1.0625,-0.556,42,0,24.5
2011-10-09 10:25:18:010,0.055,1.1629,-0.4726,42,0,24.5
2011-10-09 10:25:18:020,0.0202,1.1784,-0.4131,42,0,24.5
2011-10-09 10:25:18:030,0.0512,1.1629,-0.3774,42,0,24.5
2011-10-09 10:25:18:040,0.0821,1.0857,-0.3734,42,0,24.5
2011-10-09 10:25:18:050,0.1402,1.0278,-0.429,42,0,24.5
2011-10-09 10:25:18:060,0.1518,0.8965,-0.4449,45,0,24.5
2011-10-09 10:25:18:070,0.1441,0.7343,-0.5639,45,0,24.5
2011-10-09 10:25:18:080,0.1479,0.6261,-0.5877,45,0,24.5
2011-10-09 10:25:18:090,0.2331,0.4562,-0.5956,45,0,24.5
2011-10-09 10:25:18:100,0.2679,0.3288,-0.5956,45,0,24.5
2011-10-09 10:25:18:110,0.3608,0.2902,-0.5242,45,0,24.5
2011-10-09 10:25:18:120,0.4653,0.213,-0.4647,45,0,24.5
2011-10-09 10:25:18:130,0.7518,0.2091,-0.3695,45,0,24.5
2011-10-09 10:25:18:140,1.1388,0.2323,-0.3695,48,0,24.5
2011-10-09 10:25:18:150,1.8549,0.2014,-0.4647,48,0,24.5
2011-10-09 10:25:18:160,2.4084,0.0469,-0.6274,48,0,24.5
2011-10-09 10:25:18:170,3.0935,-0.316,-0.9091,48,0,24.5
2011-10-09 10:25:18:180,3.6238,-0.8605,-1.0996,50,0,24.5
2011-10-09 10:25:18:190,3.7825,-1.432,-1.2028,50,0,24.5
2011-10-09 10:25:18:200,3.8135,-2.0112,-1.1829,53,0,24.5
2011-10-09 10:25:18:210,3.7012,-2.324,-0.9448,53,0,24.5
2011-10-09 10:25:18:220,3.4535,-2.2893,-0.6909,53,0,24.5
2011-10-09 10:25:18:230,3.0277,-2.046,-0.4488,53,0,24.5
2011-10-09 10:25:18:240,2.6329,-1.8066,-0.3099,53,0,24.5
2011-10-09 10:25:18:250,2.0407,-1.5054,-0.2345,53,0,24.5
2011-10-09 10:25:18:260,1.6846,-1.3007,-0.1949,53,0,24.5
2011-10-09 10:25:18:270,1.3324,-1.1926,-0.1274,53,0,24.5
2011-10-09 10:25:18:280,0.9376,-1.1269,-0.0758,53,0,24.5
2011-10-09 10:25:18:290,0.5505,-1.0767,0.0669,53,0,24.5
2011-10-09 10:25:18:300,0.2408,-0.9725,0.1622,53,0,24.5
2011-10-09 10:25:18:310,-0.03,-0.8334,0.2852,53,0,24.5
2011-10-09 10:25:18:320,-0.2855,-0.7755,0.3804,56,0,24.5
2011-10-09 10:25:18:330,-0.5332,-0.6906,0.5352,56,0,24.5
2011-10-09 10:25:18:340,-0.7461,-0.5515,0.6502,56,0,24.5
2011-10-09 10:25:18:350,-0.9009,-0.482,0.7177,56,0,24.5
2011-10-09 10:25:18:360,-1.0171,-0.4898,0.7415,53,0,24.5
2011-10-09 10:25:18:370,-1.1332,-0.5747,0.7098,53,0,24.5
2011-10-09 10:25:18:380,-1.2764,-0.5786,0.6899,50,0,24.5
2011-10-09 10:25:18:390,-1.3383,-0.5168,0.6304,50,0,24.5
2011-10-09 10:25:18:400,-1.2803,-0.4859,0.5987,50,0,24.5
2011-10-09 10:25:18:410,-1.1061,-0.4743,0.5629,50,0,24.5
2011-10-09 10:25:18:420,-0.8971,-0.4782,0.5629,48,0,24.5
2011-10-09 10:25:18:430,-0.63,-0.5361,0.5907,48,0,24.5
2011-10-09 10:25:18:440,-0.4326,-0.594,0.5431,48,0,24.5
2011-10-09 10:25:18:450,-0.2816,-0.6172,0.4637,48,0,24.5
2011-10-09 10:25:18:460,-0.2081,-0.6558,0.3526,48,0,24.5
2011-10-09 10:25:18:470,-0.1307,-0.7215,0.1979,48,0,24.5
2011-10-09 10:25:18:480,-0.0145,-0.8025,0.1026,48,0,24.5
2011-10-09 10:25:18:490,0.3299,-0.9261,0.059,48,0,24.5
2011-10-09 10:25:18:500,2.6523,-3.0693,-1.3575,45,0,24.5
2011-10-09 10:25:18:510,2.3929,-3.8648,-1.6115,45,0,24.5
2011-10-09 10:25:18:520,2.7761,-3.9073,-1.5956,42,0,24.5
2011-10-09 10:25:18:530,3.3219,-3.2662,-1.3615,42,0,24.5
2011-10-09 10:25:18:540,3.1981,-2.6175,-1.0917,42,0,24.5
2011-10-09 10:25:18:550,2.7413,-2.0383,-0.7821,40,0,24.5
2011-10-09 10:25:18:560,2.3891,-1.4474,-0.671,37,0,24.5
2011-10-09 10:25:18:570,2.0678,-0.8914,-0.5877,37,0,24.5
2011-10-09 10:25:18:580,1.7659,-0.3662,-0.429,37,0,24.5
2011-10-09 10:25:18:590,1.5259,0.0122,-0.2822,37,0,24.5
2011-10-09 10:25:18:600,1.255,0.3211,-0.175,37,0,24.5
2011-10-09 10:25:18:610,1.0575,0.5335,-0.1631,37,0,24.5
2011-10-09 10:25:18:620,0.9608,0.6841,-0.1711,37,0,24.5
2011-10-09 10:25:18:630,0.8369,0.7227,-0.2822,37,0,24.5
2011-10-09 10:25:18:640,0.7131,0.7574,-0.3496,37,0,24.5
2011-10-09 10:25:18:650,0.5621,0.7497,-0.421,37,0,24.5
2011-10-09 10:25:18:660,0.4227,0.7381,-0.4647,40,0,24.5
2011-10-09 10:25:18:670,0.2989,0.7961,-0.4488,40,0,24.5
2011-10-09 10:25:18:680,0.1673,0.8849,-0.421,40,0,24.5
2011-10-09 10:25:18:690,0.0783,0.9351,-0.4052,40,0,24.5
2011-10-09 10:25:18:700,0.0628,1.0007,-0.3814,40,0,24.5
2011-10-09 10:25:18:710,0.1247,0.9891,-0.3576,40,0,24.5
2011-10-09 10:25:18:720,0.1673,0.9428,-0.3496,40,0,24.5
2011-10-09 10:25:18:730,0.2021,0.9003,-0.3655,40,0,24.5
2011-10-09 10:25:18:740,0.2602,0.7961,-0.3734,40,0,24.5
2011-10-09 10:25:18:750,0.3028,0.6648,-0.4409,40,0,24.5
2011-10-09 10:25:18:760,0.3299,0.5489,-0.4369,40,0,24.5
2011-10-09 10:25:18:770,0.3647,0.4562,-0.4568,40,0,24.5
2011-10-09 10:25:18:780,0.3415,0.3249,-0.5044,40,0,24.5
2011-10-09 10:25:18:790,0.3376,0.3056,-0.4171,40,0,24.5
2011-10-09 10:25:18:800,0.4615,0.2709,-0.3496,40,0,24.5
2011-10-09 10:25:18:810,0.6473,0.3095,-0.2584,42,0,24.5
2011-10-09 10:25:18:820,0.9221,0.2516,-0.3337,42,0,24.5
2011-10-09 10:25:18:830,1.5724,0.2361,-0.4726,42,0,24.5
2011-10-09 10:25:18:840,2.722,-0.0457,-0.8218,45,0,24.5
2011-10-09 10:25:18:850,3.2793,-0.6906,-1.0837,48,0,24.5
2011-10-09 10:25:18:860,3.2174,-1.1694,-1.179,48,0,24.5
2011-10-09 10:25:18:870,3.109,-1.6251,-1.2226,48,0,24.5
2011-10-09 10:25:18:880,3.0626,-2.0846,-1.1115,48,0,24.5
2011-10-09 10:25:18:890,2.9581,-2.3124,-0.9369,50,0,24.5
2011-10-09 10:25:18:900,2.7026,-2.1927,-0.7583,50,0,24.5
2011-10-09 10:25:18:910,2.3155,-1.9533,-0.4607,50,0,24.5
2011-10-09 10:25:18:920,1.9594,-1.6135,-0.3298,50,0,24.5
2011-10-09 10:25:18:930,1.5259,-1.3895,-0.2266,48,0,24.5
2011-10-09 10:25:18:940,1.0885,-1.1848,-0.1512,48,0,24.5
2011-10-09 10:25:18:950,0.7634,-1.0265,-0.0679,48,0,24.5
2011-10-09 10:25:18:960,0.4653,-0.8914,-0.0242,48,0,24.5
2011-10-09 10:25:18:970,0.175,-0.7678,0.0828,48,0,24.5
2011-10-09 10:25:18:980,-0.0571,-0.6558,0.1463,48,0,24.5
2011-10-09 10:25:18:990,-0.1461,-0.5091,0.2733,48,0,24.5
2011-10-09 10:25:19:000,-0.1771,-0.4202,0.3526,48,0,24.5
2011-10-09 10:25:19:010,-0.2584,-0.4048,0.428,48,0,24.5
2011-10-09 10:25:19:020,-0.4326,-0.4164,0.4875,50,0,24.5
2011-10-09 10:25:19:030,-0.5448,-0.4048,0.5114,50,0,24.5
2011-10-09 10:25:19:040,-0.6803,-0.4164,0.5114,50,0,24.5
2011-10-09 10:25:19:050,-0.8971,-0.37,0.4955,50,0,24.5
2011-10-09 10:25:19:060,-1.0171,-0.37,0.4637,50,0,24.5
2011-10-09 10:25:19:070,-1.0712,-0.3392,0.428,50,0,24.5
2011-10-09 10:25:19:080,-1.0287,-0.3121,0.4399,48,0,24.5
2011-10-09 10:25:19:090,-0.9242,-0.2581,0.5074,48,0,24.5
2011-10-09 10:25:19:100,-0.8158,-0.2388,0.5352,48,0,24.5
2011-10-09 10:25:19:110,-0.7345,-0.2349,0.5352,48,0,24.5
2011-10-09 10:25:19:120,-0.6726,-0.2851,0.5074,50,0,24.5
2011-10-09 10:25:19:130,-0.5564,-0.3546,0.4042,50,0,24.5
2011-10-09 10:25:19:140,-0.4171,-0.4589,0.3249,50,0,24.5
2011-10-09 10:25:19:150,-0.3126,-0.5438,0.186,50,0,24.5
2011-10-09 10:25:19:160,-0.181,-0.6906,0.0709,50,0,24.5
2011-10-09 10:25:19:170,-0.03,-0.8296,-0.1234,50,0,24.5
2011-10-09 10:25:19:180,0.2099,-1.0458,-0.3576,48,0,24.5
2011-10-09 10:25:19:190,1.4059,-1.4629,-0.0679,48,0,24.5
2011-10-09 10:25:19:200,2.5671,-2.2893,-0.5679,48,0,24.5
2011-10-09 10:25:19:210,2.9271,-3.4709,-0.6591,48,0,24.5
2011-10-09 10:25:19:220,3.1593,-4.6526,-1.1075,45,0,24.5
2011-10-09 10:25:19:230,3.3684,-4.7066,-1.6075,42,0,24.5
2011-10-09 10:25:19:240,3.8522,-3.8493,-1.7186,42,0,24.5
2011-10-09 10:25:19:250,3.7283,-3.2817,-1.3615,40,0,24.5
2011-10-09 10:25:19:260,3.0742,-2.5712,-0.9805,37,0,24.5
2011-10-09 10:25:19:270,2.5478,-1.7409,-0.7067,37,0,24.5
2011-10-09 10:25:19:280,2.2807,-0.9416,-0.5441,34,0,24.5
2011-10-09 10:25:19:290,2.0872,-0.3083,-0.4449,37,0,24.5
2011-10-09 10:25:19:300,1.7311,0.2323,-0.2901,37,0,24.5
2011-10-09 10:25:19:310,1.3672,0.6763,-0.2425,37,0,24.5
2011-10-09 10:25:19:320,1.0808,1.105,-0.2425,37,0,24.5
2011-10-09 10:25:19:330,0.8369,1.4294,-0.3576,40,0,24.5
2011-10-09 10:25:19:340,0.5814,1.4911,-0.5322,42,0,24.5
2011-10-09 10:25:19:350,0.4189,1.3637,-0.6353,42,0,24.5
2011-10-09 10:25:19:360,0.2563,1.1899,-0.679,42,0,24.5
2011-10-09 10:25:19:370,0.175,1.132,-0.6393,42,0,24.5
2011-10-09 10:25:19:380,0.1905,1.159,-0.5718,42,0,24.5
2011-10-09 10:25:19:390,0.1905,1.1861,-0.4568,42,0,24.5
2011-10-09 10:25:19:400,0.1905,1.1436,-0.425,42,0,24.5
2011-10-09 10:25:19:410,0.2253,1.0664,-0.4528,42,0,24.5
2011-10-09 10:25:19:420,0.2873,0.9969,-0.548,42,0,24.5
2011-10-09 10:25:19:430,0.3686,0.9274,-0.5361,42,0,24.5
2011-10-09 10:25:19:440,0.4653,0.7227,-0.675,42,0,24.5
2011-10-09 10:25:19:450,0.5118,0.5335,-0.7464,42,0,24.5
2011-10-09 10:25:19:460,0.5427,0.3829,-0.7861,42,0,24.5
2011-10-09 10:25:19:470,0.5737,0.1936,-0.7821,42,0,24.5
2011-10-09 10:25:19:480,0.6202,0.155,-0.6829,42,0,24.5
2011-10-09 10:25:19:490,0.8601,0.0932,-0.5599,42,0,24.5
2011-10-09 10:25:19:500,1.1853,0.0585,-0.4568,42,0,24.5
2011-10-09 10:25:19:510,1.8356,-0.0148,-0.4607,42,0,24.5
2011-10-09 10:25:19:520,2.6832,-0.1499,-0.6075,45,0,24.5
2011-10-09 10:25:19:530,3.3645,-0.5515,-0.7901,48,0,24.5
2011-10-09 10:25:19:540,3.7477,-1.0922,-0.9567,48,0,24.5
2011-10-09 10:25:19:550,3.798,-1.7564,-1.0877,50,0,24.5
2011-10-09 10:25:19:560,3.5038,-2.3897,-0.9964,50,0,24.5
2011-10-09 10:25:19:570,2.9852,-2.5325,-0.7067,53,0,24.5
2011-10-09 10:25:19:580,2.5052,-2.1425,-0.3814,50,0,24.5
2011-10-09 10:25:19:590,2.3,-1.6984,-0.1353,50,0,24.5
2011-10-09 10:25:19:600,2.0872,-1.4436,-0.0401,50,0,24.5
2011-10-09 10:25:19:610,1.8007,-1.2737,-0.0361,50,0,24.5
2011-10-09 10:25:19:620,1.464,-1.1037,-0.0044,50,0,24.5
2011-10-09 10:25:19:630,1.0537,-0.9763,0.0788,50,0,24.5
2011-10-09 10:25:19:640,0.6434,-0.8412,0.182,50,0,24.5
2011-10-09 10:25:19:650,0.3144,-0.7717,0.2772,50,0,24.5
2011-10-09 10:25:19:660,0.0086,-0.6635,0.3725,50,0,24.5
2011-10-09 10:25:19:670,-0.239,-0.567,0.4042,53,0,24.5
2011-10-09 10:25:19:680,-0.4055,-0.4782,0.4955,53,0,24.5
2011-10-09 10:25:19:690,-0.5216,-0.4009,0.5669,53,0,24.5
2011-10-09 10:25:19:700,-0.6222,-0.3121,0.6621,53,0,24.5
2011-10-09 10:25:19:710,-0.7538,-0.3044,0.7574,53,0,24.5
2011-10-09 10:25:19:720,-0.8893,-0.3276,0.7693,53,0,24.5
2011-10-09 10:25:19:730,-1.0209,-0.316,0.7177,53,0,24.5
2011-10-09 10:25:19:740,-1.0287,-0.2851,0.6899,50,0,24.5
2011-10-09 10:25:19:750,-0.9861,-0.3469,0.5947,50,0,24.5
2011-10-09 10:25:19:760,-0.839,-0.3971,0.5153,50,0,24.5
2011-10-09 10:25:19:770,-0.6919,-0.4898,0.4558,50,0,24.5
2011-10-09 10:25:19:780,-0.5216,-0.594,0.3804,50,0,24.5
2011-10-09 10:25:19:790,-0.4132,-0.6597,0.4003,48,0,24.5
2011-10-09 10:25:19:800,-0.3784,-0.6828,0.3844,48,0,24.5
2011-10-09 10:25:19:810,-0.3513,-0.7292,0.4003,48,0,24.5
2011-10-09 10:25:19:820,-0.2623,-0.791,0.3566,48,0,24.5
2011-10-09 10:25:19:830,-0.1655,-0.8836,0.313,48,0,24.5
2011-10-09 10:25:19:840,-0.0145,-0.9763,0.178,48,0,24.5
2011-10-09 10:25:19:850,0.237,-1.1308,0.1344,48,0,24.5
2011-10-09 10:25:19:860,0.744,-1.3354,0.0273,48,0,24.5
2011-10-09 10:25:19:870,1.7814,-1.8297,-0.3457,48,0,24.5
2011-10-09 10:25:19:880,2.9348,-2.7025,-0.9369,48,0,24.5
2011-10-09 10:25:19:890,3.1361,-3.8957,-1.4329,45,0,24.5
2011-10-09 10:25:19:900,2.5052,-4.4556,-1.7623,45,0,24.5
2011-10-09 10:25:19:910,2.9426,-3.9459,-1.7027,42,0,24.5
2011-10-09 10:25:19:920,3.3684,-3.1388,-1.421,42,0,24.5
2011-10-09 10:25:19:930,3.02,-2.3356,-1.1194,42,0,24.5
2011-10-09 10:25:19:940,2.4626,-1.656,-0.8694,42,0,24.5
2011-10-09 10:25:19:950,2.153,-0.9261,-0.6988,40,0,24.5
2011-10-09 10:25:19:960,1.8859,-0.3932,-0.5917,40,0,24.5
2011-10-09 10:25:19:970,1.5724,0.1705,-0.429,40,0,24.5
2011-10-09 10:25:19:980,1.3169,0.6725,-0.3933,40,0,24.5
2011-10-09 10:25:19:990,1.0421,1.0857,-0.3218,40,0,24.5
2011-10-09 10:25:20:000,0.8718,1.3251,-0.3615,40,0,24.5
2011-10-09 10:25:20:010,0.7789,1.3946,-0.4091,42,0,24.5
2011-10-09 10:25:20:020,0.7169,1.2633,-0.4845,42,0,24.5
2011-10-09 10:25:20:030,0.566,1.0857,-0.5718,42,0,24.5
2011-10-09 10:25:20:040,0.4073,1.0316,-0.552,42,0,24.5
2011-10-09 10:25:20:050,0.2795,1.0702,-0.4528,42,0,24.5
2011-10-09 10:25:20:060,0.2253,1.0857,-0.4409,42,0,24.5
2011-10-09 10:25:20:070,0.2253,0.9776,-0.4052,42,0,24.5
2011-10-09 10:25:20:080,0.2176,0.8578,-0.4091,42,0,24.5
2011-10-09 10:25:20:090,0.2215,0.8308,-0.3774,42,0,24.5
2011-10-09 10:25:20:100,0.2447,0.7536,-0.421,42,0,24.5
2011-10-09 10:25:20:110,0.264,0.6416,-0.4726,42,0,24.5
2011-10-09 10:25:20:120,0.3144,0.5335,-0.5044,42,0,24.5
2011-10-09 10:25:20:130,0.3608,0.3829,-0.556,45,0,24.5
2011-10-09 10:25:20:140,0.3453,0.3056,-0.4925,45,0,24.5
2011-10-09 10:25:20:150,0.4537,0.213,-0.5202,45,0,24.5
2011-10-09 10:25:20:160,0.5466,0.1357,-0.5123,45,0,24.5
2011-10-09 10:25:20:170,0.6782,0.0315,-0.4091,45,0,24.5
2011-10-09 10:25:20:180,0.9105,-0.0186,-0.3218,45,0,24.5
2011-10-09 10:25:20:190,1.3246,0.016,-0.306,45,0,24.5
2011-10-09 10:25:20:200,1.8898,0.0199,-0.4369,45,0,24.5
2011-10-09 10:25:20:210,2.4549,-0.0804,-0.5441,45,0,24.5
2011-10-09 10:25:20:220,2.9155,-0.3971,-0.7583,48,0,24.5
2011-10-09 10:25:20:230,3.229,-0.7523,-0.9052,48,0,24.5
2011-10-09 10:25:20:240,3.3838,-1.154,-0.9369,50,0,24.5
2011-10-09 10:25:20:250,3.5116,-1.5324,-0.8853,50,0,24.5
2011-10-09 10:25:20:260,3.4729,-1.7293,-0.7306,50,0,24.5
2011-10-09 10:25:20:270,3.0239,-1.8259,-0.4607,50,0,24.5
2011-10-09 10:25:20:280,2.5904,-1.7988,-0.1671,50,0,24.5
2011-10-09 10:25:20:290,2.3194,-1.6096,-0.0322,50,0,24.5
2011-10-09 10:25:20:300,1.9865,-1.3239,-0.0322,50,0,24.5
2011-10-09 10:25:20:310,1.6536,-1.1887,-0.0719,50,0,24.5
2011-10-09 10:25:20:320,1.2627,-1.0922,-0.056,53,0,24.5
2011-10-09 10:25:20:330,0.9143,-0.9763,0.0233,53,0,24.5
2011-10-09 10:25:20:340,0.5118,-0.8759,0.0947,53,0,24.5
2011-10-09 10:25:20:350,0.2021,-0.7832,0.1463,53,0,24.5
2011-10-09 10:25:20:360,-0.0571,-0.7253,0.2217,53,0,24.5
2011-10-09 10:25:20:370,-0.3281,-0.6983,0.2971,53,0,24.5
2011-10-09 10:25:20:380,-0.5293,-0.6288,0.4201,53,0,24.5
2011-10-09 10:25:20:390,-0.63,-0.5168,0.5352,53,0,24.5
2011-10-09 10:25:20:400,-0.6455,-0.4241,0.6106,50,0,24.5
2011-10-09 10:25:20:410,-0.7655,-0.3894,0.7018,50,0,24.5
2011-10-09 10:25:20:420,-0.9629,-0.3778,0.6899,50,0,24.5
2011-10-09 10:25:20:430,-1.1564,-0.3778,0.5947,50,0,24.5
2011-10-09 10:25:20:440,-1.3035,-0.3121,0.5471,48,0,24.5
2011-10-09 10:25:20:450,-1.2687,-0.3314,0.3923,48,0,24.5
2011-10-09 10:25:20:460,-1.1138,-0.3739,0.3566,48,0,24.5
2011-10-09 10:25:20:470,-0.8429,-0.4473,0.2931,45,0,24.5
2011-10-09 10:25:20:480,-0.6068,-0.5052,0.3249,45,0,24.5
2011-10-09 10:25:20:490,-0.4868,-0.5593,0.2812,45,0,24.5
2011-10-09 10:25:20:500,-0.4442,-0.6172,0.2614,45,0,24.5
2011-10-09 10:25:20:510,-0.3977,-0.6597,0.2217,45,0,24.5
2011-10-09 10:25:20:520,-0.3436,-0.7099,0.178,42,0,24.5
2011-10-09 10:25:20:530,-0.2197,-0.7871,0.0749,42,0,24.5
2011-10-09 10:25:20:540,-0.0378,-0.9107,-0.0639,42,0,24.5
2011-10-09 10:25:20:550,0.2989,-1.0381,-0.0639,45,0,24.5
2011-10-09 10:25:20:560,0.8601,-1.2466,-0.1869,45,0,24.5
2011-10-09 10:25:20:570,1.5065,-1.71,-0.4607,42,0,24.5
2011-10-09 10:25:20:580,2.869,-2.4244,-0.6829,42,0,24.5
2011-10-09 10:25:20:590,3.4342,-3.2817,-0.9091,42,0,24.5
2011-10-09 10:25:20:600,3.6742,-3.8918,-0.9766,40,0,24.5
2011-10-09 10:25:20:610,3.9103,-3.7605,-1.0797,40,0,24.5
2011-10-09 10:25:20:620,4.0767,-3.1002,-0.9845,37,0,24.5
2011-10-09 10:25:20:630,3.2522,-2.4399,-0.8377,37,0,24.5
2011-10-09 10:25:20:640,2.5052,-1.7332,-0.8932,34,0,24.5
2011-10-09 10:25:20:650,1.9594,-1.0806,-0.794,34,0,24.5
2011-10-09 10:25:20:660,1.8046,-0.5863,-0.6631,34,0,24.5
2011-10-09 10:25:20:670,1.6188,-0.2735,-0.4449,34,0,24.5
2011-10-09 10:25:20:680,1.3401,0.0315,-0.1988,34,0,24.5
2011-10-09 10:25:20:690,1.0885,0.3056,-0.0084,37,0,24.5
2011-10-09 10:25:20:700,0.9182,0.5412,0.1066,37,0,24.5
2011-10-09 10:25:20:710,0.7556,0.7845,0.0868,37,0,24.5
2011-10-09 10:25:20:720,0.5853,0.9389,-0.0044,40,0,24.5
2011-10-09 10:25:20:730,0.4111,0.9969,-0.0957,37,0,24.5
2011-10-09 10:25:20:740,0.2292,0.9737,-0.1472,37,0,24.5
2011-10-09 10:25:20:750,0.175,0.9621,-0.2544,37,0,24.5
2011-10-09 10:25:20:760,0.1015,0.9814,-0.306,37,0,24.5
2011-10-09 10:25:20:770,0.0783,1.0046,-0.3337,37,0,24.5
2011-10-09 10:25:20:780,0.0163,1.0625,-0.3457,37,0,24.5
2011-10-09 10:25:20:790,0.0086,1.1475,-0.3655,37,0,24.5
2011-10-09 10:25:20:800,0.0744,1.1745,-0.3417,37,0,24.5
2011-10-09 10:25:20:810,0.1441,1.1436,-0.4131,37,0,24.5
2011-10-09 10:25:20:820,0.1828,1.159,-0.4369,37,0,24.5
2011-10-09 10:25:20:830,0.2679,1.1204,-0.3576,40,0,24.5
2011-10-09 10:25:20:840,0.4034,1.132,-0.4052,40,0,24.5
2011-10-09 10:25:20:850,0.5931,1.0857,-0.4052,40,0,24.5
2011-10-09 10:25:20:860,0.8485,0.9969,-0.3536,42,0,24.5
2011-10-09 10:25:20:870,1.0575,0.9274,-0.3298,42,0,24.5
2011-10-09 10:25:20:880,1.3208,0.7845,-0.3298,42,0,24.5
2011-10-09 10:25:20:890,1.5453,0.6725,-0.3814,42,0,24.5
2011-10-09 10:25:20:900,2.0562,0.6184,-0.5877,45,0,24.5
2011-10-09 10:25:20:910,2.8574,0.4176,-0.9091,45,0,24.5
2011-10-09 10:25:20:920,3.7206,-0.0997,-1.2861,48,0,24.5
2011-10-09 10:25:20:930,4.0999,-0.6404,-1.4051,48,0,24.5
2011-10-09 10:25:20:940,4.3825,-1.0574,-1.294,50,0,24.5
2011-10-09 10:25:20:950,4.5373,-1.5556,-1.1353,50,0,24.5
2011-10-09 10:25:20:960,4.4793,-2.0537,-0.9805,53,0,24.5
2011-10-09 10:25:20:970,4.0651,-2.2893,-0.7464,53,0,24.5
2011-10-09 10:25:20:980,3.3451,-2.1889,-0.3258,56,0,24.5
2011-10-09 10:25:20:990,2.6445,-1.8954,-0.048,56,0,24.5
2011-10-09 10:25:21:000,2.0755,-1.683,0.0471,56,0,24.5
2011-10-09 10:25:21:010,1.6149,-1.5864,0.0987,56,0,24.5
2011-10-09 10:25:21:020,1.1311,-1.5015,0.1384,56,0,24.5
2011-10-09 10:25:21:030,0.6898,-1.3779,0.2018,56,0,24.5
2011-10-09 10:25:21:040,0.2873,-1.2042,0.2455,56,0,24.5
2011-10-09 10:25:21:050,-0.0726,-1.042,0.2852,56,0,24.5
2011-10-09 10:25:21:060,-0.3552,-0.93,0.3526,56,0,24.5
2011-10-09 10:25:21:070,-0.5487,-0.7871,0.4955,56,0,24.5
2011-10-09 10:25:21:080,-0.6532,-0.6674,0.6304,56,0,24.5
2011-10-09 10:25:21:090,-0.7113,-0.6017,0.7733,53,0,24.5
2011-10-09 10:25:21:100,-0.8158,-0.6404,0.8486,53,0,24.5
2011-10-09 10:25:21:110,-0.9861,-0.7292,0.8923,53,0,24.5
2011-10-09 10:25:21:120,-1.1874,-0.6828,0.7693,50,0,24.5
2011-10-09 10:25:21:130,-1.2648,-0.6172,0.7534,50,0,24.5
2011-10-09 10:25:21:140,-1.1564,-0.5013,0.6145,50,0,24.5
2011-10-09 10:25:21:150,-0.8893,-0.5013,0.4717,48,0,24.5
2011-10-09 10:25:21:160,-0.7113,-0.5631,0.3923,48,0,24.5
2011-10-09 10:25:21:170,-0.5719,-0.6519,0.3487,48,0,24.5
2011-10-09 10:25:21:180,-0.4171,-0.7253,0.3288,48,0,24.5
2011-10-09 10:25:21:190,-0.3513,-0.7601,0.3169,45,0,24.5
2011-10-09 10:25:21:200,-0.3087,-0.7601,0.2534,45,0,24.5
2011-10-09 10:25:21:210,-0.1926,-0.8064,0.2058,45,0,24.5
2011-10-09 10:25:21:220,-0.0223,-0.8489,0.1145,45,0,24.5
2011-10-09 10:25:21:230,0.1905,-0.9454,0.063,45,0,24.5
2011-10-09 10:25:21:240,0.6356,-1.1385,0.0312,45,0,24.5
2011-10-09 10:25:21:250,1.3749,-1.4011,-0.0798,45,0,24.5
2011-10-09 10:25:21:260,2.2342,-1.8027,-0.5242,48,0,24.5
2011-10-09 10:25:21:270,2.8187,-2.3549,-1.0083,45,0,24.5
2011-10-09 10:25:21:280,2.9155,-3.1156,-1.3694,42,0,24.5
2011-10-09 10:25:21:290,2.9697,-3.8841,-1.5639,42,0,24.5
2011-10-09 10:25:21:300,3.0084,-3.7837,-1.5043,42,0,24.5
2011-10-09 10:25:21:310,3.1787,-2.8917,-1.2742,42,0,24.5
2011-10-09 10:25:21:320,2.9232,-2.212,-0.9805,40,0,24.5
2011-10-09 10:25:21:330,2.451,-1.6675,-0.6988,40,0,24.5
2011-10-09 10:25:21:340,2.2342,-1.0651,-0.5441,37,0,24.5
2011-10-09 10:25:21:350,2.0833,-0.5361,-0.4449,37,0,24.5
2011-10-09 10:25:21:360,1.9362,-0.0727,-0.4131,37,0,24.5
2011-10-09 10:25:21:370,1.6498,0.3172,-0.3139,37,0,24.5
2011-10-09 10:25:21:380,1.4214,0.491,-0.2345,37,0,24.5
2011-10-09 10:25:21:390,1.1892,0.5837,-0.2345,40,0,24.5
2011-10-09 10:25:21:400,1.0072,0.6223,-0.3179,40,0,24.5
2011-10-09 10:25:21:410,0.8718,0.6107,-0.429,40,0,24.5
2011-10-09 10:25:21:420,0.7247,0.6184,-0.4687,40,0,24.5
2011-10-09 10:25:21:430,0.5427,0.6995,-0.4687,40,0,24.5
2011-10-09 10:25:21:440,0.415,0.8038,-0.4925,42,0,24.5
2011-10-09 10:25:21:450,0.2718,0.9235,-0.4449,42,0,24.5
2011-10-09 10:25:21:460,0.2253,1.0162,-0.4568,42,0,24.5
2011-10-09 10:25:21:470,0.2176,1.0664,-0.4131,42,0,24.5
2011-10-09 10:25:21:480,0.2563,1.0895,-0.421,42,0,24.5
2011-10-09 10:25:21:490,0.2989,1.1088,-0.4488,45,0,24.5
2011-10-09 10:25:21:500,0.2757,0.6995,-0.4647,45,0,24.5
2011-10-09 10:25:21:510,0.326,0.6377,-0.5083,45,0,24.5
2011-10-09 10:25:21:520,0.4111,0.5257,-0.4964,45,0,24.5
2011-10-09 10:25:21:530,0.4886,0.3906,-0.4687,45,0,24.5
2011-10-09 10:25:21:540,0.5389,0.3056,-0.421,45,0,24.5
2011-10-09 10:25:21:550,0.7131,0.2747,-0.4012,48,0,24.5
2011-10-09 10:25:21:560,1.1233,0.2747,-0.425,48,0,24.5
2011-10-09 10:25:21:570,1.673,0.2632,-0.5599,48,0,24.5
2011-10-09 10:25:21:580,2.2923,0.0237,-0.8139,48,0,24.5
2011-10-09 10:25:21:590,2.8497,-0.2581,-0.9329,50,0,24.5
2011-10-09 10:25:21:600,3.2135,-0.54,-1.0242,50,0,24.5
2011-10-09 10:25:21:610,3.3645,-0.9107,-1.052,50,0,24.5
2011-10-09 10:25:21:620,3.3761,-1.3239,-1.0559,50,0,24.5
2011-10-09 10:25:21:630,3.4651,-1.6598,-0.9726,50,0,24.5
2011-10-09 10:25:21:640,3.3258,-1.8336,-0.8179,53,0,24.5
2011-10-09 10:25:21:650,3.0161,-1.8568,-0.6552,53,0,24.5
2011-10-09 10:25:21:660,2.7336,-1.7641,-0.4409,53,0,24.5
2011-10-09 10:25:21:670,2.3929,-1.5671,-0.2703,53,0,24.5
2011-10-09 10:25:21:680,2.002,-1.3161,-0.1472,53,0,24.5
2011-10-09 10:25:21:690,1.6459,-1.1771,-0.048,53,0,24.5
2011-10-09 10:25:21:700,1.2898,-1.1037,0.0233,53,0,24.5
2011-10-09 10:25:21:710,0.9608,-0.9995,0.0709,53,0,24.5
2011-10-09 10:25:21:720,0.6627,-0.93,0.1384,53,0,24.5
2011-10-09 10:25:21:730,0.3531,-0.8296,0.182,53,0,24.5
2011-10-09 10:25:21:740,0.1015,-0.7601,0.1979,53,0,24.5
2011-10-09 10:25:21:750,-0.1152,-0.6906,0.2534,53,0,24.5
2011-10-09 10:25:21:760,-0.3745,-0.6519,0.3526,56,0,24.5
2011-10-09 10:25:21:770,-0.5642,-0.6056,0.4439,56,0,24.5
2011-10-09 10:25:21:780,-0.6648,-0.5052,0.555,56,0,24.5
2011-10-09 10:25:21:790,-0.661,-0.4473,0.6264,53,0,24.5
2011-10-09 10:25:21:800,-0.6532,-0.4975,0.6344,53,0,24.5
2011-10-09 10:25:21:810,-0.7577,-0.5979,0.6621,53,0,24.5
2011-10-09 10:25:21:820,-0.8971,-0.5245,0.6621,50,0,24.5
2011-10-09 10:25:21:830,-0.9745,-0.4936,0.5947,50,0,24.5
2011-10-09 10:25:21:840,-0.9706,-0.4743,0.5828,50,0,24.5
2011-10-09 10:25:21:850,-0.8584,-0.482,0.5947,50,0,24.5
2011-10-09 10:25:21:860,-0.7384,-0.4975,0.5193,48,0,24.5
2011-10-09 10:25:21:870,-0.5952,-0.54,0.5312,48,0,24.5
2011-10-09 10:25:21:880,-0.479,-0.5786,0.4756,48,0,24.5
2011-10-09 10:25:21:890,-0.4171,-0.6056,0.3804,48,0,24.5
2011-10-09 10:25:21:900,-0.3474,-0.6326,0.2931,48,0,24.5
2011-10-09 10:25:21:910,-0.1849,-0.679,0.1741,45,0,24.5
2011-10-09 10:25:21:920,0.0318,-0.7832,0.0749,45,0,24.5
2011-10-09 10:25:21:930,0.4189,-0.9493,0.0431,48,0,24.5
2011-10-09 10:25:21:940,0.9995,-1.2389,-0.0679,48,0,24.5
2011-10-09 10:25:21:950,1.7891,-1.6946,-0.3457,48,0,24.5
2011-10-09 10:25:21:960,2.5516,-2.3781,-0.802,48,0,24.5
2011-10-09 10:25:21:970,2.78,-3.2392,-1.3615,45,0,24.5
2011-10-09 10:25:21:980,2.7297,-4.139,-1.7424,45,0,24.5
2011-10-09 10:25:21:990,3.1748,-3.9729,-1.8853,45,0,24.5
2011-10-09 10:25:22:000,3.5193,-3.2122,-1.6908,45,0,24.5
2011-10-09 10:25:22:010,3.291,-2.5518,-1.3813,45,0,24.5
2011-10-09 10:25:22:020,2.6291,-1.8104,-1.175,42,0,24.5
2011-10-09 10:25:22:030,2.2691,-1.1462,-1.0202,42,0,24.5
2011-10-09 10:25:22:040,1.9594,-0.5284,-0.9448,42,0,24.5
2011-10-09 10:25:22:050,1.6304,-0.0997,-0.6472,42,0,24.5
2011-10-09 10:25:22:060,1.3091,0.2632,-0.6948,42,0,24.5
2011-10-09 10:25:22:070,1.0769,0.518,-0.5202,42,0,24.5
2011-10-09 10:25:22:080,0.8679,0.8501,-0.5202,45,0,24.5
2011-10-09 10:25:22:090,0.7092,1.0046,-0.5242,45,0,24.5
2011-10-09 10:25:22:100,0.5389,1.0471,-0.5599,45,0,24.5
2011-10-09 10:25:22:110,0.3995,1.0046,-0.5639,45,0,24.5
2011-10-09 10:25:22:120,0.326,0.9776,-0.5679,45,0,24.5
2011-10-09 10:25:22:130,0.1944,1.0046,-0.4964,42,0,24.5
2011-10-09 10:25:22:140,0.0628,1.0432,-0.4329,42,0,24.5
2011-10-09 10:25:22:150,-0.0416,1.0934,-0.3536,45,0,24.5
2011-10-09 10:25:22:160,-0.1268,1.1668,-0.3298,45,0,24.5
2011-10-09 10:25:22:170,-0.1616,1.1166,-0.2901,45,0,24.5
2011-10-09 10:25:22:180,-0.1113,1.0702,-0.2584,45,0,24.5
2011-10-09 10:25:22:190,-0.0803,1.0162,-0.2901,45,0,24.5
2011-10-09 10:25:22:200,0.0666,0.8887,-0.3496,45,0,24.5
2011-10-09 10:25:22:210,0.1441,0.8617,-0.4409,45,0,24.5
2011-10-09 10:25:22:220,0.3144,0.7381,-0.4607,45,0,24.5
2011-10-09 10:25:22:230,0.535,0.6802,-0.556,45,0,24.5
2011-10-09 10:25:22:240,0.7247,0.5528,-0.6194,45,0,24.5
2011-10-09 10:25:22:250,0.8872,0.3906,-0.5718,45,0,24.5
2011-10-09 10:25:22:260,1.0305,0.3443,-0.5639,48,0,24.5
2011-10-09 10:25:22:270,1.2704,0.3636,-0.5242,48,0,24.5
2011-10-09 10:25:22:280,1.6304,0.3751,-0.6472,48,0,24.5
2011-10-09 10:25:22:290,2.362,0.2902,-0.8893,48,0,24.5
2011-10-09 10:25:22:300,3.2445,-0.0573,-1.2782,50,0,24.5
2011-10-09 10:25:22:310,3.6471,-0.5515,-1.5559,53,0,24.5
2011-10-09 10:25:22:320,3.5155,-1.0922,-1.8099,56,0,24.5
2011-10-09 10:25:22:330,3.2058,-1.6135,-1.917,58,0,24.5
2011-10-09 10:25:22:340,2.9039,-1.7062,-1.7424,61,0,24.5
2011-10-09 10:25:22:350,2.5787,-1.6521,-1.4726,61,0,24.5
2011-10-09 10:25:22:360,2.3117,-1.4706,-1.1393,61,0,24.5
2011-10-09 10:25:22:370,2.1801,-1.2505,-0.8536,61,0,24.5
2011-10-09 10:25:22:380,2.122,-1.1385,-0.7067,64,0,24.5
2011-10-09 10:25:22:390,1.7078,-1.0651,-0.5202,64,0,24.5
2011-10-09 10:25:22:400,1.2782,-0.9956,-0.3655,64,0,24.5
2011-10-09 10:25:22:410,0.9259,-0.9107,-0.2107,64,0,24.5
2011-10-09 10:25:22:420,0.7014,-0.8373,-0.0163,64,0,24.5
2011-10-09 10:25:22:430,0.4266,-0.7601,0.1899,61,0,24.5
2011-10-09 10:25:22:440,0.1828,-0.6751,0.3645,61,0,24.5
2011-10-09 10:25:22:450,-0.0571,-0.5863,0.4915,61,0,24.5
2011-10-09 10:25:22:460,-0.2119,-0.5013,0.5629,61,0,24.5
2011-10-09 10:25:22:470,-0.3861,-0.4434,0.5987,58,0,24.5
2011-10-09 10:25:22:480,-0.5835,-0.4589,0.6899,58,0,24.5
2011-10-09 10:25:22:490,-0.7655,-0.4936,0.7217,58,0,24.5
2011-10-09 10:25:22:500,-0.8274,-0.5554,0.801,58,0,24.5
2011-10-09 10:25:22:510,-0.9164,-0.567,0.6542,56,0,24.5
2011-10-09 10:25:22:520,-1.0906,-0.5052,0.6066,56,0,24.5
2011-10-09 10:25:22:530,-1.0674,-0.4859,0.5907,56,0,24.5
2011-10-09 10:25:22:540,-0.8274,-0.5013,0.5431,53,0,24.5
2011-10-09 10:25:22:550,-0.688,-0.5593,0.5629,53,0,24.5
2011-10-09 10:25:22:560,-0.5371,-0.6365,0.5828,53,0,24.5
2011-10-09 10:25:22:570,-0.39,-0.6635,0.5391,53,0,24.5
2011-10-09 10:25:22:580,-0.3203,-0.7176,0.4796,50,0,24.5
2011-10-09 10:25:22:590,-0.3242,-0.7292,0.3566,50,0,24.5
2011-10-09 10:25:22:600,-0.3165,-0.7562,0.2138,50,0,24.5
2011-10-09 10:25:22:610,-0.2661,-0.8025,0.0868,50,0,24.5
2011-10-09 10:25:22:620,-0.1268,-0.8605,-0.0084,50,0,24.5
2011-10-09 10:25:22:630,0.206,-0.9261,-0.0599,48,0,24.5
2011-10-09 10:25:22:640,0.8679,-1.042,-0.1592,50,0,24.5
2011-10-09 10:25:22:650,1.7659,-1.3548,-0.5401,50,0,24.5
2011-10-09 10:25:22:660,2.5749,-1.8027,-1.1194,50,0,24.5
2011-10-09 10:25:22:670,2.4858,-2.66,-1.6948,50,0,24.5
2011-10-09 10:25:22:680,2.1143,-3.6756,-2.1075,50,0,24.5
2011-10-09 10:25:22:690,2.5555,-4.4865,-2.2226,50,0,24.5
2011-10-09 10:25:22:700,3.4845,-4.0463,-2.1194,48,0,24.5
2011-10-09 10:25:22:710,3.5271,-2.9573,-1.7821,48,0,24.5
2011-10-09 10:25:22:720,2.9271,-2.185,-1.3932,48,0,24.5
2011-10-09 10:25:22:730,2.4239,-1.6173,-1.1274,48,0,24.5
2011-10-09 10:25:22:740,1.9943,-0.9918,-0.9885,45,0,24.5
2011-10-09 10:25:22:750,1.6149,-0.4009,-0.8893,45,0,24.5
2011-10-09 10:25:22:760,1.2356,0.016,-0.6869,42,0,24.5
2011-10-09 10:25:22:770,0.9685,0.3558,-0.5083,42,0,24.5
2011-10-09 10:25:22:780,0.8988,0.5605,-0.3655,42,0,24.5
2011-10-09 10:25:22:790,0.8485,0.7381,-0.2782,42,0,24.5
2011-10-09 10:25:22:800,0.8059,0.7961,-0.2901,42,0,24.5
2011-10-09 10:25:22:810,0.7324,0.8231,-0.3576,42,0,24.5
2011-10-09 10:25:22:820,0.6473,0.8154,-0.4131,42,0,24.5
2011-10-09 10:25:22:830,0.5156,0.7845,-0.5004,42,0,24.5
2011-10-09 10:25:22:840,0.3569,0.8578,-0.5282,42,0,24.5
2011-10-09 10:25:22:850,0.2021,0.9389,-0.4409,42,0,24.5
2011-10-09 10:25:22:860,0.0628,1.0586,-0.4012,42,0,24.5
2011-10-09 10:25:22:870,0.0357,1.1088,-0.3457,42,0,24.5
2011-10-09 10:25:22:880,0.0821,1.0895,-0.302,42,0,24.5
2011-10-09 10:25:22:890,0.175,1.0239,-0.2663,40,0,24.5
2011-10-09 10:25:22:900,0.1557,0.966,-0.3298,42,0,24.5
2011-10-09 10:25:22:910,0.1595,0.9003,-0.3615,42,0,24.5
2011-10-09 10:25:22:920,0.1866,0.7265,-0.4528,42,0,24.5
2011-10-09 10:25:22:930,0.2408,0.657,-0.5123,42,0,24.5
2011-10-09 10:25:22:940,0.2757,0.5257,-0.5322,42,0,24.5
2011-10-09 10:25:22:950,0.3492,0.3636,-0.5599,42,0,24.5
2011-10-09 10:25:22:960,0.4847,0.267,-0.5322,42,0,24.5
2011-10-09 10:25:22:970,0.6279,0.1859,-0.5837,42,0,24.5
2011-10-09 10:25:22:980,0.8408,0.1434,-0.5956,45,0,24.5
2011-10-09 10:25:22:990,1.1388,0.0701,-0.5877,45,0,24.5
2011-10-09 10:25:23:000,1.5259,-0.0186,-0.6552,45,0,24.5
2011-10-09 10:25:23:010,2.0252,-0.1886,-0.7385,45,0,24.5
2011-10-09 10:25:23:020,2.4471,-0.231,-0.8099,48,0,24.5
2011-10-09 10:25:23:030,2.8303,-0.3662,-1.0163,48,0,24.5
2011-10-09 10:25:23:040,2.9968,-0.6365,-1.1829,48,0,24.5
2011-10-09 10:25:23:050,3.1981,-0.9918,-1.302,50,0,24.5
2011-10-09 10:25:23:060,3.4226,-1.2737,-1.3456,50,0,24.5
2011-10-09 10:25:23:070,3.4458,-1.4629,-1.1551,53,0,24.5
2011-10-09 10:25:23:080,3.4071,-1.571,-0.921,53,0,24.5
2011-10-09 10:25:23:090,3.0858,-1.571,-0.5758,53,0,24.5
2011-10-09 10:25:23:100,2.5245,-1.4706,-0.2742,53,0,24.5
2011-10-09 10:25:23:110,2.0523,-1.3161,-0.1393,53,0,24.5
2011-10-09 10:25:23:120,1.7001,-1.0767,-0.0798,53,0,24.5
2011-10-09 10:25:23:130,1.4059,-0.8914,-0.0599,53,0,24.5
2011-10-09 10:25:23:140,1.1117,-0.8334,-0.0758,53,0,24.5
2011-10-09 10:25:23:150,0.7711,-0.8141,-0.052,53,0,24.5
2011-10-09 10:25:23:160,0.4034,-0.7987,0.0114,53,0,24.5
2011-10-09 10:25:23:170,0.0125,-0.7794,0.1185,53,0,24.5
